"success","timeout","failed_images","failed_audio","failed_video","trial_type","trial_index","time_elapsed","internal_node_id","subject_id","study_id","session_id","width","height","webaudio","browser","browser_version","mobile","os","fullscreen","vsync_rate","webcam","microphone","rt","stimulus","response","view_history","png","Response","accuracy"
TRUE,FALSE,"[]","[]","[]","preload",0,39,"0.0-0.0","55b2d3f2fdf99b525bc839aa","641387e815ec15c3ccbb8ea1","6419e61830db1f1bdf1b70dd",NA,NA,NA,NA,NA,NA,NA,NA,NA,NA,NA,NA,NA,NA,NA,NA,NA,NA
TRUE,NA,NA,NA,NA,"fullscreen",1,100353,"0.0-1.0","55b2d3f2fdf99b525bc839aa","641387e815ec15c3ccbb8ea1","6419e61830db1f1bdf1b70dd",NA,NA,NA,NA,NA,NA,NA,NA,NA,NA,NA,NA,NA,NA,NA,NA,NA,NA
NA,NA,NA,NA,NA,"browser-check",2,100771,"0.0-2.0","55b2d3f2fdf99b525bc839aa","641387e815ec15c3ccbb8ea1","6419e61830db1f1bdf1b70dd",2560,1440,TRUE,"chrome","111.0.0",FALSE,"Windows 10",TRUE,144.2,TRUE,TRUE,NA,NA,NA,NA,NA,NA,NA
NA,NA,NA,NA,NA,"html-keyboard-response",3,101996,"0.0-3.0","55b2d3f2fdf99b525bc839aa","641387e815ec15c3ccbb8ea1","6419e61830db1f1bdf1b70dd",NA,NA,NA,NA,NA,NA,NA,NA,NA,NA,NA,1225,"Welcome to the experiment! Press any key to start.",NA,NA,NA,NA,NA
NA,NA,NA,NA,NA,"instructions",4,108387,"0.0-4.0","55b2d3f2fdf99b525bc839aa","641387e815ec15c3ccbb8ea1","6419e61830db1f1bdf1b70dd",NA,NA,NA,NA,NA,NA,NA,NA,NA,NA,NA,6391,NA,NA,"[{""page_index"":0,""viewing_time"":6391}]",NA,NA,NA
NA,NA,NA,NA,NA,"instructions",5,206823,"0.0-5.0","55b2d3f2fdf99b525bc839aa","641387e815ec15c3ccbb8ea1","6419e61830db1f1bdf1b70dd",NA,NA,NA,NA,NA,NA,NA,NA,NA,NA,NA,98436,NA,NA,"[{""page_index"":0,""viewing_time"":60372},{""page_index"":1,""viewing_time"":38064}]",NA,NA,NA
NA,NA,NA,NA,NA,"video-keyboard-response",6,301226,"0.0-6.0","55b2d3f2fdf99b525bc839aa","641387e815ec15c3ccbb8ea1","6419e61830db1f1bdf1b70dd",NA,NA,NA,NA,NA,NA,NA,NA,NA,NA,NA,17464,"[""Diverse_final.mp4""]","enter",NA,NA,NA,NA
NA,NA,NA,NA,NA,"sketchpad",7,384793,"0.0-7.0-0.0","55b2d3f2fdf99b525bc839aa","641387e815ec15c3ccbb8ea1","6419e61830db1f1bdf1b70dd",NA,NA,NA,NA,NA,NA,NA,NA,NA,NA,NA,83531,NA,"button",NA,"55b2d3f2fdf99b525bc839aa_7_image.png",NA,NA
NA,NA,NA,NA,NA,"survey-html-form",8,403240,"0.0-7.0-1.0-0.0","55b2d3f2fdf99b525bc839aa","641387e815ec15c3ccbb8ea1","6419e61830db1f1bdf1b70dd",NA,NA,NA,NA,NA,NA,NA,NA,NA,NA,NA,18440,NA,"{""let_diverse"":""street""}",NA,NA,NA,NA
NA,NA,NA,NA,NA,"survey-html-form",9,408800,"0.0-7.0-1.0-0.1","55b2d3f2fdf99b525bc839aa","641387e815ec15c3ccbb8ea1","6419e61830db1f1bdf1b70dd",NA,NA,NA,NA,NA,NA,NA,NA,NA,NA,NA,5559,NA,"{""let_diverse"":""stool""}",NA,NA,NA,NA
NA,NA,NA,NA,NA,"survey-html-form",10,412694,"0.0-7.0-1.0-0.2","55b2d3f2fdf99b525bc839aa","641387e815ec15c3ccbb8ea1","6419e61830db1f1bdf1b70dd",NA,NA,NA,NA,NA,NA,NA,NA,NA,NA,NA,3893,NA,"{""let_diverse"":""straight""}",NA,NA,NA,NA
NA,NA,NA,NA,NA,"survey-html-form",11,414809,"0.0-7.0-1.0-0.3","55b2d3f2fdf99b525bc839aa","641387e815ec15c3ccbb8ea1","6419e61830db1f1bdf1b70dd",NA,NA,NA,NA,NA,NA,NA,NA,NA,NA,NA,NA,NA,NA,NA,NA,"timeout",NA
NA,NA,NA,NA,NA,"sketchpad",12,493804,"0.0-7.0-0.1","55b2d3f2fdf99b525bc839aa","641387e815ec15c3ccbb8ea1","6419e61830db1f1bdf1b70dd",NA,NA,NA,NA,NA,NA,NA,NA,NA,NA,NA,78975,NA,"button",NA,"55b2d3f2fdf99b525bc839aa_12_image.png",NA,NA
NA,NA,NA,NA,NA,"survey-html-form",13,504370,"0.0-7.0-1.1-0.4","55b2d3f2fdf99b525bc839aa","641387e815ec15c3ccbb8ea1","6419e61830db1f1bdf1b70dd",NA,NA,NA,NA,NA,NA,NA,NA,NA,NA,NA,10560,NA,"{""let_diverse"":""pride""}",NA,NA,NA,NA
NA,NA,NA,NA,NA,"survey-html-form",14,506583,"0.0-7.0-1.1-0.5","55b2d3f2fdf99b525bc839aa","641387e815ec15c3ccbb8ea1","6419e61830db1f1bdf1b70dd",NA,NA,NA,NA,NA,NA,NA,NA,NA,NA,NA,2212,NA,"{""let_diverse"":""present""}",NA,NA,NA,NA
NA,NA,NA,NA,NA,"survey-html-form",15,508429,"0.0-7.0-1.1-0.6","55b2d3f2fdf99b525bc839aa","641387e815ec15c3ccbb8ea1","6419e61830db1f1bdf1b70dd",NA,NA,NA,NA,NA,NA,NA,NA,NA,NA,NA,1845,NA,"{""let_diverse"":""primary""}",NA,NA,NA,NA
NA,NA,NA,NA,NA,"survey-html-form",16,510072,"0.0-7.0-1.1-0.7","55b2d3f2fdf99b525bc839aa","641387e815ec15c3ccbb8ea1","6419e61830db1f1bdf1b70dd",NA,NA,NA,NA,NA,NA,NA,NA,NA,NA,NA,1642,NA,"{""let_diverse"":""private""}",NA,NA,NA,NA
NA,NA,NA,NA,NA,"survey-html-form",17,511651,"0.0-7.0-1.1-0.8","55b2d3f2fdf99b525bc839aa","641387e815ec15c3ccbb8ea1","6419e61830db1f1bdf1b70dd",NA,NA,NA,NA,NA,NA,NA,NA,NA,NA,NA,1578,NA,"{""let_diverse"":""program""}",NA,NA,NA,NA
NA,NA,NA,NA,NA,"survey-html-form",18,514069,"0.0-7.0-1.1-0.9","55b2d3f2fdf99b525bc839aa","641387e815ec15c3ccbb8ea1","6419e61830db1f1bdf1b70dd",NA,NA,NA,NA,NA,NA,NA,NA,NA,NA,NA,2417,NA,"{""let_diverse"":""procedure""}",NA,NA,NA,NA
NA,NA,NA,NA,NA,"survey-html-form",19,516454,"0.0-7.0-1.1-0.10","55b2d3f2fdf99b525bc839aa","641387e815ec15c3ccbb8ea1","6419e61830db1f1bdf1b70dd",NA,NA,NA,NA,NA,NA,NA,NA,NA,NA,NA,2384,NA,"{""let_diverse"":""practical""}",NA,NA,NA,NA
NA,NA,NA,NA,NA,"survey-html-form",20,518606,"0.0-7.0-1.1-0.11","55b2d3f2fdf99b525bc839aa","641387e815ec15c3ccbb8ea1","6419e61830db1f1bdf1b70dd",NA,NA,NA,NA,NA,NA,NA,NA,NA,NA,NA,2151,NA,"{""let_diverse"":""print""}",NA,NA,NA,NA
NA,NA,NA,NA,NA,"survey-html-form",21,520480,"0.0-7.0-1.1-0.12","55b2d3f2fdf99b525bc839aa","641387e815ec15c3ccbb8ea1","6419e61830db1f1bdf1b70dd",NA,NA,NA,NA,NA,NA,NA,NA,NA,NA,NA,1873,NA,"{""let_diverse"":""prove""}",NA,NA,NA,NA
NA,NA,NA,NA,NA,"survey-html-form",22,523813,"0.0-7.0-1.1-0.13","55b2d3f2fdf99b525bc839aa","641387e815ec15c3ccbb8ea1","6419e61830db1f1bdf1b70dd",NA,NA,NA,NA,NA,NA,NA,NA,NA,NA,NA,NA,NA,NA,NA,NA,"timeout",NA
NA,NA,NA,NA,NA,"sketchpad",23,586711,"0.0-7.0-0.2","55b2d3f2fdf99b525bc839aa","641387e815ec15c3ccbb8ea1","6419e61830db1f1bdf1b70dd",NA,NA,NA,NA,NA,NA,NA,NA,NA,NA,NA,62877,NA,"button",NA,"55b2d3f2fdf99b525bc839aa_23_image.png",NA,NA
NA,NA,NA,NA,NA,"survey-html-form",24,598116,"0.0-7.0-1.2-0.14","55b2d3f2fdf99b525bc839aa","641387e815ec15c3ccbb8ea1","6419e61830db1f1bdf1b70dd",NA,NA,NA,NA,NA,NA,NA,NA,NA,NA,NA,11399,NA,"{""let_diverse"":""abcess""}",NA,NA,NA,NA
NA,NA,NA,NA,NA,"survey-html-form",25,600489,"0.0-7.0-1.2-0.15","55b2d3f2fdf99b525bc839aa","641387e815ec15c3ccbb8ea1","6419e61830db1f1bdf1b70dd",NA,NA,NA,NA,NA,NA,NA,NA,NA,NA,NA,2372,NA,"{""let_diverse"":""abstain""}",NA,NA,NA,NA
NA,NA,NA,NA,NA,"survey-html-form",26,602478,"0.0-7.0-1.2-0.16","55b2d3f2fdf99b525bc839aa","641387e815ec15c3ccbb8ea1","6419e61830db1f1bdf1b70dd",NA,NA,NA,NA,NA,NA,NA,NA,NA,NA,NA,1989,NA,"{""let_diverse"":""abstract""}",NA,NA,NA,NA
NA,NA,NA,NA,NA,"survey-html-form",27,604408,"0.0-7.0-1.2-0.17","55b2d3f2fdf99b525bc839aa","641387e815ec15c3ccbb8ea1","6419e61830db1f1bdf1b70dd",NA,NA,NA,NA,NA,NA,NA,NA,NA,NA,NA,1928,NA,"{""let_diverse"":""abandon""}",NA,NA,NA,NA
NA,NA,NA,NA,NA,"survey-html-form",28,606068,"0.0-7.0-1.2-0.18","55b2d3f2fdf99b525bc839aa","641387e815ec15c3ccbb8ea1","6419e61830db1f1bdf1b70dd",NA,NA,NA,NA,NA,NA,NA,NA,NA,NA,NA,1660,NA,"{""let_diverse"":""abate""}",NA,NA,NA,NA
NA,NA,NA,NA,NA,"survey-html-form",29,607316,"0.0-7.0-1.2-0.19","55b2d3f2fdf99b525bc839aa","641387e815ec15c3ccbb8ea1","6419e61830db1f1bdf1b70dd",NA,NA,NA,NA,NA,NA,NA,NA,NA,NA,NA,1246,NA,"{""let_diverse"":""abduct""}",NA,NA,NA,NA
NA,NA,NA,NA,NA,"survey-html-form",30,608575,"0.0-7.0-1.2-0.20","55b2d3f2fdf99b525bc839aa","641387e815ec15c3ccbb8ea1","6419e61830db1f1bdf1b70dd",NA,NA,NA,NA,NA,NA,NA,NA,NA,NA,NA,1258,NA,"{""let_diverse"":""abhor""}",NA,NA,NA,NA
NA,NA,NA,NA,NA,"survey-html-form",31,609678,"0.0-7.0-1.2-0.21","55b2d3f2fdf99b525bc839aa","641387e815ec15c3ccbb8ea1","6419e61830db1f1bdf1b70dd",NA,NA,NA,NA,NA,NA,NA,NA,NA,NA,NA,1102,NA,"{""let_diverse"":""ability""}",NA,NA,NA,NA
NA,NA,NA,NA,NA,"survey-html-form",32,610417,"0.0-7.0-1.2-0.22","55b2d3f2fdf99b525bc839aa","641387e815ec15c3ccbb8ea1","6419e61830db1f1bdf1b70dd",NA,NA,NA,NA,NA,NA,NA,NA,NA,NA,NA,738,NA,"{""let_diverse"":""abide""}",NA,NA,NA,NA
NA,NA,NA,NA,NA,"survey-html-form",33,611746,"0.0-7.0-1.2-0.23","55b2d3f2fdf99b525bc839aa","641387e815ec15c3ccbb8ea1","6419e61830db1f1bdf1b70dd",NA,NA,NA,NA,NA,NA,NA,NA,NA,NA,NA,1328,NA,"{""let_diverse"":""abdjure""}",NA,NA,NA,NA
NA,NA,NA,NA,NA,"survey-html-form",34,613461,"0.0-7.0-1.2-0.24","55b2d3f2fdf99b525bc839aa","641387e815ec15c3ccbb8ea1","6419e61830db1f1bdf1b70dd",NA,NA,NA,NA,NA,NA,NA,NA,NA,NA,NA,1714,NA,"{""let_diverse"":""abject""}",NA,NA,NA,NA
NA,NA,NA,NA,NA,"survey-html-form",35,614728,"0.0-7.0-1.2-0.25","55b2d3f2fdf99b525bc839aa","641387e815ec15c3ccbb8ea1","6419e61830db1f1bdf1b70dd",NA,NA,NA,NA,NA,NA,NA,NA,NA,NA,NA,1266,NA,"{""let_diverse"":""abolish""}",NA,NA,NA,NA
NA,NA,NA,NA,NA,"survey-html-form",36,615631,"0.0-7.0-1.2-0.26","55b2d3f2fdf99b525bc839aa","641387e815ec15c3ccbb8ea1","6419e61830db1f1bdf1b70dd",NA,NA,NA,NA,NA,NA,NA,NA,NA,NA,NA,902,NA,"{""let_diverse"":""about""}",NA,NA,NA,NA
NA,NA,NA,NA,NA,"survey-html-form",37,616355,"0.0-7.0-1.2-0.27","55b2d3f2fdf99b525bc839aa","641387e815ec15c3ccbb8ea1","6419e61830db1f1bdf1b70dd",NA,NA,NA,NA,NA,NA,NA,NA,NA,NA,NA,723,NA,"{""let_diverse"":""above""}",NA,NA,NA,NA
NA,NA,NA,NA,NA,"survey-html-form",38,616723,"0.0-7.0-1.2-0.28","55b2d3f2fdf99b525bc839aa","641387e815ec15c3ccbb8ea1","6419e61830db1f1bdf1b70dd",NA,NA,NA,NA,NA,NA,NA,NA,NA,NA,NA,NA,NA,NA,NA,NA,"timeout",NA
NA,NA,NA,NA,NA,"sketchpad",39,684773,"0.0-7.0-0.3","55b2d3f2fdf99b525bc839aa","641387e815ec15c3ccbb8ea1","6419e61830db1f1bdf1b70dd",NA,NA,NA,NA,NA,NA,NA,NA,NA,NA,NA,68030,NA,"button",NA,"55b2d3f2fdf99b525bc839aa_39_image.png",NA,NA
NA,NA,NA,NA,NA,"survey-html-form",40,694599,"0.0-7.0-1.3-0.29","55b2d3f2fdf99b525bc839aa","641387e815ec15c3ccbb8ea1","6419e61830db1f1bdf1b70dd",NA,NA,NA,NA,NA,NA,NA,NA,NA,NA,NA,9820,NA,"{""let_diverse"":""darts""}",NA,NA,NA,NA
NA,NA,NA,NA,NA,"survey-html-form",41,696360,"0.0-7.0-1.3-0.30","55b2d3f2fdf99b525bc839aa","641387e815ec15c3ccbb8ea1","6419e61830db1f1bdf1b70dd",NA,NA,NA,NA,NA,NA,NA,NA,NA,NA,NA,1760,NA,"{""let_diverse"":""dabble""}",NA,NA,NA,NA
NA,NA,NA,NA,NA,"survey-html-form",42,698048,"0.0-7.0-1.3-0.31","55b2d3f2fdf99b525bc839aa","641387e815ec15c3ccbb8ea1","6419e61830db1f1bdf1b70dd",NA,NA,NA,NA,NA,NA,NA,NA,NA,NA,NA,1687,NA,"{""let_diverse"":""daily""}",NA,NA,NA,NA
NA,NA,NA,NA,NA,"survey-html-form",43,699753,"0.0-7.0-1.3-0.32","55b2d3f2fdf99b525bc839aa","641387e815ec15c3ccbb8ea1","6419e61830db1f1bdf1b70dd",NA,NA,NA,NA,NA,NA,NA,NA,NA,NA,NA,1704,NA,"{""let_diverse"":""dairy""}",NA,NA,NA,NA
NA,NA,NA,NA,NA,"survey-html-form",44,700828,"0.0-7.0-1.3-0.33","55b2d3f2fdf99b525bc839aa","641387e815ec15c3ccbb8ea1","6419e61830db1f1bdf1b70dd",NA,NA,NA,NA,NA,NA,NA,NA,NA,NA,NA,1073,NA,"{""let_diverse"":""dandy""}",NA,NA,NA,NA
NA,NA,NA,NA,NA,"survey-html-form",45,701591,"0.0-7.0-1.3-0.34","55b2d3f2fdf99b525bc839aa","641387e815ec15c3ccbb8ea1","6419e61830db1f1bdf1b70dd",NA,NA,NA,NA,NA,NA,NA,NA,NA,NA,NA,763,NA,"{""let_diverse"":""danger""}",NA,NA,NA,NA
NA,NA,NA,NA,NA,"survey-html-form",46,702789,"0.0-7.0-1.3-0.35","55b2d3f2fdf99b525bc839aa","641387e815ec15c3ccbb8ea1","6419e61830db1f1bdf1b70dd",NA,NA,NA,NA,NA,NA,NA,NA,NA,NA,NA,1197,NA,"{""let_diverse"":""danish""}",NA,NA,NA,NA
NA,NA,NA,NA,NA,"survey-html-form",47,704050,"0.0-7.0-1.3-0.36","55b2d3f2fdf99b525bc839aa","641387e815ec15c3ccbb8ea1","6419e61830db1f1bdf1b70dd",NA,NA,NA,NA,NA,NA,NA,NA,NA,NA,NA,1260,NA,"{""let_diverse"":""date""}",NA,NA,NA,NA
NA,NA,NA,NA,NA,"survey-html-form",48,706652,"0.0-7.0-1.3-0.37","55b2d3f2fdf99b525bc839aa","641387e815ec15c3ccbb8ea1","6419e61830db1f1bdf1b70dd",NA,NA,NA,NA,NA,NA,NA,NA,NA,NA,NA,2601,NA,"{""let_diverse"":""daisy""}",NA,NA,NA,NA
NA,NA,NA,NA,NA,"survey-html-form",49,709172,"0.0-7.0-1.3-0.38","55b2d3f2fdf99b525bc839aa","641387e815ec15c3ccbb8ea1","6419e61830db1f1bdf1b70dd",NA,NA,NA,NA,NA,NA,NA,NA,NA,NA,NA,2519,NA,"{""let_diverse"":""darling""}",NA,NA,NA,NA
NA,NA,NA,NA,NA,"survey-html-form",50,710194,"0.0-7.0-1.3-0.39","55b2d3f2fdf99b525bc839aa","641387e815ec15c3ccbb8ea1","6419e61830db1f1bdf1b70dd",NA,NA,NA,NA,NA,NA,NA,NA,NA,NA,NA,1021,NA,"{""let_diverse"":""dark""}",NA,NA,NA,NA
NA,NA,NA,NA,NA,"survey-html-form",51,714780,"0.0-7.0-1.3-0.40","55b2d3f2fdf99b525bc839aa","641387e815ec15c3ccbb8ea1","6419e61830db1f1bdf1b70dd",NA,NA,NA,NA,NA,NA,NA,NA,NA,NA,NA,NA,NA,NA,NA,NA,"timeout",NA
NA,NA,NA,NA,NA,"sketchpad",52,773173,"0.0-7.0-0.4","55b2d3f2fdf99b525bc839aa","641387e815ec15c3ccbb8ea1","6419e61830db1f1bdf1b70dd",NA,NA,NA,NA,NA,NA,NA,NA,NA,NA,NA,58368,NA,"button",NA,"55b2d3f2fdf99b525bc839aa_52_image.png",NA,NA
NA,NA,NA,NA,NA,"survey-html-form",53,783328,"0.0-7.0-1.4-0.41","55b2d3f2fdf99b525bc839aa","641387e815ec15c3ccbb8ea1","6419e61830db1f1bdf1b70dd",NA,NA,NA,NA,NA,NA,NA,NA,NA,NA,NA,10149,NA,"{""let_diverse"":""each""}",NA,NA,NA,NA
NA,NA,NA,NA,NA,"survey-html-form",54,784062,"0.0-7.0-1.4-0.42","55b2d3f2fdf99b525bc839aa","641387e815ec15c3ccbb8ea1","6419e61830db1f1bdf1b70dd",NA,NA,NA,NA,NA,NA,NA,NA,NA,NA,NA,733,NA,"{""let_diverse"":""eager""}",NA,NA,NA,NA
NA,NA,NA,NA,NA,"survey-html-form",55,785630,"0.0-7.0-1.4-0.43","55b2d3f2fdf99b525bc839aa","641387e815ec15c3ccbb8ea1","6419e61830db1f1bdf1b70dd",NA,NA,NA,NA,NA,NA,NA,NA,NA,NA,NA,1567,NA,"{""let_diverse"":""ear""}",NA,NA,NA,NA
NA,NA,NA,NA,NA,"survey-html-form",56,786485,"0.0-7.0-1.4-0.44","55b2d3f2fdf99b525bc839aa","641387e815ec15c3ccbb8ea1","6419e61830db1f1bdf1b70dd",NA,NA,NA,NA,NA,NA,NA,NA,NA,NA,NA,854,NA,"{""let_diverse"":""earn""}",NA,NA,NA,NA
NA,NA,NA,NA,NA,"survey-html-form",57,787410,"0.0-7.0-1.4-0.45","55b2d3f2fdf99b525bc839aa","641387e815ec15c3ccbb8ea1","6419e61830db1f1bdf1b70dd",NA,NA,NA,NA,NA,NA,NA,NA,NA,NA,NA,924,NA,"{""let_diverse"":""ease""}",NA,NA,NA,NA
NA,NA,NA,NA,NA,"survey-html-form",58,788405,"0.0-7.0-1.4-0.46","55b2d3f2fdf99b525bc839aa","641387e815ec15c3ccbb8ea1","6419e61830db1f1bdf1b70dd",NA,NA,NA,NA,NA,NA,NA,NA,NA,NA,NA,994,NA,"{""let_diverse"":""easy""}",NA,NA,NA,NA
NA,NA,NA,NA,NA,"survey-html-form",59,789377,"0.0-7.0-1.4-0.47","55b2d3f2fdf99b525bc839aa","641387e815ec15c3ccbb8ea1","6419e61830db1f1bdf1b70dd",NA,NA,NA,NA,NA,NA,NA,NA,NA,NA,NA,971,NA,"{""let_diverse"":""ebony""}",NA,NA,NA,NA
NA,NA,NA,NA,NA,"survey-html-form",60,791656,"0.0-7.0-1.4-0.48","55b2d3f2fdf99b525bc839aa","641387e815ec15c3ccbb8ea1","6419e61830db1f1bdf1b70dd",NA,NA,NA,NA,NA,NA,NA,NA,NA,NA,NA,2278,NA,"{""let_diverse"":""echo""}",NA,NA,NA,NA
NA,NA,NA,NA,NA,"survey-html-form",61,792863,"0.0-7.0-1.4-0.49","55b2d3f2fdf99b525bc839aa","641387e815ec15c3ccbb8ea1","6419e61830db1f1bdf1b70dd",NA,NA,NA,NA,NA,NA,NA,NA,NA,NA,NA,1206,NA,"{""let_diverse"":""edible""}",NA,NA,NA,NA
NA,NA,NA,NA,NA,"survey-html-form",62,795287,"0.0-7.0-1.4-0.50","55b2d3f2fdf99b525bc839aa","641387e815ec15c3ccbb8ea1","6419e61830db1f1bdf1b70dd",NA,NA,NA,NA,NA,NA,NA,NA,NA,NA,NA,2424,NA,"{""let_diverse"":""ecology""}",NA,NA,NA,NA
NA,NA,NA,NA,NA,"survey-html-form",63,796640,"0.0-7.0-1.4-0.51","55b2d3f2fdf99b525bc839aa","641387e815ec15c3ccbb8ea1","6419e61830db1f1bdf1b70dd",NA,NA,NA,NA,NA,NA,NA,NA,NA,NA,NA,1352,NA,"{""let_diverse"":""econojmy""}",NA,NA,NA,NA
NA,NA,NA,NA,NA,"survey-html-form",64,798654,"0.0-7.0-1.4-0.52","55b2d3f2fdf99b525bc839aa","641387e815ec15c3ccbb8ea1","6419e61830db1f1bdf1b70dd",NA,NA,NA,NA,NA,NA,NA,NA,NA,NA,NA,2013,NA,"{""let_diverse"":""edible""}",NA,NA,NA,NA
NA,NA,NA,NA,NA,"survey-html-form",65,801083,"0.0-7.0-1.4-0.53","55b2d3f2fdf99b525bc839aa","641387e815ec15c3ccbb8ea1","6419e61830db1f1bdf1b70dd",NA,NA,NA,NA,NA,NA,NA,NA,NA,NA,NA,2428,NA,"{""let_diverse"":""eavesdrop""}",NA,NA,NA,NA
NA,NA,NA,NA,NA,"survey-html-form",66,803192,"0.0-7.0-1.4-0.54","55b2d3f2fdf99b525bc839aa","641387e815ec15c3ccbb8ea1","6419e61830db1f1bdf1b70dd",NA,NA,NA,NA,NA,NA,NA,NA,NA,NA,NA,NA,NA,NA,NA,NA,"timeout",NA
NA,NA,NA,NA,NA,"sketchpad",67,847862,"0.0-7.0-0.5","55b2d3f2fdf99b525bc839aa","641387e815ec15c3ccbb8ea1","6419e61830db1f1bdf1b70dd",NA,NA,NA,NA,NA,NA,NA,NA,NA,NA,NA,44648,NA,"button",NA,"55b2d3f2fdf99b525bc839aa_67_image.png",NA,NA
NA,NA,NA,NA,NA,"survey-html-form",68,858028,"0.0-7.0-1.5-0.55","55b2d3f2fdf99b525bc839aa","641387e815ec15c3ccbb8ea1","6419e61830db1f1bdf1b70dd",NA,NA,NA,NA,NA,NA,NA,NA,NA,NA,NA,10161,NA,"{""let_diverse"":""glow""}",NA,NA,NA,NA
NA,NA,NA,NA,NA,"survey-html-form",69,862271,"0.0-7.0-1.5-0.56","55b2d3f2fdf99b525bc839aa","641387e815ec15c3ccbb8ea1","6419e61830db1f1bdf1b70dd",NA,NA,NA,NA,NA,NA,NA,NA,NA,NA,NA,4242,NA,"{""let_diverse"":""glad""}",NA,NA,NA,NA
NA,NA,NA,NA,NA,"survey-html-form",70,864349,"0.0-7.0-1.5-0.57","55b2d3f2fdf99b525bc839aa","641387e815ec15c3ccbb8ea1","6419e61830db1f1bdf1b70dd",NA,NA,NA,NA,NA,NA,NA,NA,NA,NA,NA,2077,NA,"{""let_diverse"":""glide""}",NA,NA,NA,NA
NA,NA,NA,NA,NA,"survey-html-form",71,866325,"0.0-7.0-1.5-0.58","55b2d3f2fdf99b525bc839aa","641387e815ec15c3ccbb8ea1","6419e61830db1f1bdf1b70dd",NA,NA,NA,NA,NA,NA,NA,NA,NA,NA,NA,1975,NA,"{""let_diverse"":""glaze""}",NA,NA,NA,NA
NA,NA,NA,NA,NA,"survey-html-form",72,870541,"0.0-7.0-1.5-0.59","55b2d3f2fdf99b525bc839aa","641387e815ec15c3ccbb8ea1","6419e61830db1f1bdf1b70dd",NA,NA,NA,NA,NA,NA,NA,NA,NA,NA,NA,4215,NA,"{""let_diverse"":""glance""}",NA,NA,NA,NA
NA,NA,NA,NA,NA,"survey-html-form",73,871733,"0.0-7.0-1.5-0.60","55b2d3f2fdf99b525bc839aa","641387e815ec15c3ccbb8ea1","6419e61830db1f1bdf1b70dd",NA,NA,NA,NA,NA,NA,NA,NA,NA,NA,NA,1191,NA,"{""let_diverse"":""glass""}",NA,NA,NA,NA
NA,NA,NA,NA,NA,"survey-html-form",74,874249,"0.0-7.0-1.5-0.61","55b2d3f2fdf99b525bc839aa","641387e815ec15c3ccbb8ea1","6419e61830db1f1bdf1b70dd",NA,NA,NA,NA,NA,NA,NA,NA,NA,NA,NA,2515,NA,"{""let_diverse"":""gleam""}",NA,NA,NA,NA
NA,NA,NA,NA,NA,"survey-html-form",75,875718,"0.0-7.0-1.5-0.62","55b2d3f2fdf99b525bc839aa","641387e815ec15c3ccbb8ea1","6419e61830db1f1bdf1b70dd",NA,NA,NA,NA,NA,NA,NA,NA,NA,NA,NA,1468,NA,"{""let_diverse"":""glee""}",NA,NA,NA,NA
NA,NA,NA,NA,NA,"survey-html-form",76,877525,"0.0-7.0-1.5-0.63","55b2d3f2fdf99b525bc839aa","641387e815ec15c3ccbb8ea1","6419e61830db1f1bdf1b70dd",NA,NA,NA,NA,NA,NA,NA,NA,NA,NA,NA,1806,NA,"{""let_diverse"":""glide""}",NA,NA,NA,NA
NA,NA,NA,NA,NA,"survey-html-form",77,877869,"0.0-7.0-1.5-0.64","55b2d3f2fdf99b525bc839aa","641387e815ec15c3ccbb8ea1","6419e61830db1f1bdf1b70dd",NA,NA,NA,NA,NA,NA,NA,NA,NA,NA,NA,NA,NA,NA,NA,NA,"timeout",NA
NA,NA,NA,NA,NA,"sketchpad",78,932452,"0.0-7.0-0.6","55b2d3f2fdf99b525bc839aa","641387e815ec15c3ccbb8ea1","6419e61830db1f1bdf1b70dd",NA,NA,NA,NA,NA,NA,NA,NA,NA,NA,NA,54562,NA,"button",NA,"55b2d3f2fdf99b525bc839aa_78_image.png",NA,NA
NA,NA,NA,NA,NA,"survey-html-form",79,946051,"0.0-7.0-1.6-0.65","55b2d3f2fdf99b525bc839aa","641387e815ec15c3ccbb8ea1","6419e61830db1f1bdf1b70dd",NA,NA,NA,NA,NA,NA,NA,NA,NA,NA,NA,13594,NA,"{""let_diverse"":""learn""}",NA,NA,NA,NA
NA,NA,NA,NA,NA,"survey-html-form",80,947023,"0.0-7.0-1.6-0.66","55b2d3f2fdf99b525bc839aa","641387e815ec15c3ccbb8ea1","6419e61830db1f1bdf1b70dd",NA,NA,NA,NA,NA,NA,NA,NA,NA,NA,NA,971,NA,"{""let_diverse"":""lean""}",NA,NA,NA,NA
NA,NA,NA,NA,NA,"survey-html-form",81,948355,"0.0-7.0-1.6-0.67","55b2d3f2fdf99b525bc839aa","641387e815ec15c3ccbb8ea1","6419e61830db1f1bdf1b70dd",NA,NA,NA,NA,NA,NA,NA,NA,NA,NA,NA,1331,NA,"{""let_diverse"":""lemon""}",NA,NA,NA,NA
NA,NA,NA,NA,NA,"survey-html-form",82,950562,"0.0-7.0-1.6-0.68","55b2d3f2fdf99b525bc839aa","641387e815ec15c3ccbb8ea1","6419e61830db1f1bdf1b70dd",NA,NA,NA,NA,NA,NA,NA,NA,NA,NA,NA,2206,NA,"{""let_diverse"":""lead""}",NA,NA,NA,NA
NA,NA,NA,NA,NA,"survey-html-form",83,952688,"0.0-7.0-1.6-0.69","55b2d3f2fdf99b525bc839aa","641387e815ec15c3ccbb8ea1","6419e61830db1f1bdf1b70dd",NA,NA,NA,NA,NA,NA,NA,NA,NA,NA,NA,2125,NA,"{""let_diverse"":""leaf""}",NA,NA,NA,NA
NA,NA,NA,NA,NA,"survey-html-form",84,953888,"0.0-7.0-1.6-0.70","55b2d3f2fdf99b525bc839aa","641387e815ec15c3ccbb8ea1","6419e61830db1f1bdf1b70dd",NA,NA,NA,NA,NA,NA,NA,NA,NA,NA,NA,1199,NA,"{""let_diverse"":""leak""}",NA,NA,NA,NA
NA,NA,NA,NA,NA,"survey-html-form",85,954645,"0.0-7.0-1.6-0.71","55b2d3f2fdf99b525bc839aa","641387e815ec15c3ccbb8ea1","6419e61830db1f1bdf1b70dd",NA,NA,NA,NA,NA,NA,NA,NA,NA,NA,NA,756,NA,"{""let_diverse"":""leave""}",NA,NA,NA,NA
NA,NA,NA,NA,NA,"survey-html-form",86,955907,"0.0-7.0-1.6-0.72","55b2d3f2fdf99b525bc839aa","641387e815ec15c3ccbb8ea1","6419e61830db1f1bdf1b70dd",NA,NA,NA,NA,NA,NA,NA,NA,NA,NA,NA,1262,NA,"{""let_diverse"":""lecture""}",NA,NA,NA,NA
NA,NA,NA,NA,NA,"survey-html-form",87,957392,"0.0-7.0-1.6-0.73","55b2d3f2fdf99b525bc839aa","641387e815ec15c3ccbb8ea1","6419e61830db1f1bdf1b70dd",NA,NA,NA,NA,NA,NA,NA,NA,NA,NA,NA,1484,NA,"{""let_diverse"":""leech""}",NA,NA,NA,NA
NA,NA,NA,NA,NA,"survey-html-form",88,958671,"0.0-7.0-1.6-0.74","55b2d3f2fdf99b525bc839aa","641387e815ec15c3ccbb8ea1","6419e61830db1f1bdf1b70dd",NA,NA,NA,NA,NA,NA,NA,NA,NA,NA,NA,1278,NA,"{""let_diverse"":""leeway""}",NA,NA,NA,NA
NA,NA,NA,NA,NA,"survey-html-form",89,960125,"0.0-7.0-1.6-0.75","55b2d3f2fdf99b525bc839aa","641387e815ec15c3ccbb8ea1","6419e61830db1f1bdf1b70dd",NA,NA,NA,NA,NA,NA,NA,NA,NA,NA,NA,1453,NA,"{""let_diverse"":""legacy""}",NA,NA,NA,NA
NA,NA,NA,NA,NA,"survey-html-form",90,962468,"0.0-7.0-1.6-0.76","55b2d3f2fdf99b525bc839aa","641387e815ec15c3ccbb8ea1","6419e61830db1f1bdf1b70dd",NA,NA,NA,NA,NA,NA,NA,NA,NA,NA,NA,NA,NA,NA,NA,NA,"timeout",NA
NA,NA,NA,NA,NA,"sketchpad",91,1000212,"0.0-7.0-0.7","55b2d3f2fdf99b525bc839aa","641387e815ec15c3ccbb8ea1","6419e61830db1f1bdf1b70dd",NA,NA,NA,NA,NA,NA,NA,NA,NA,NA,NA,37723,NA,"button",NA,"55b2d3f2fdf99b525bc839aa_91_image.png",NA,NA
NA,NA,NA,NA,NA,"survey-html-form",92,1010890,"0.0-7.0-1.7-0.77","55b2d3f2fdf99b525bc839aa","641387e815ec15c3ccbb8ea1","6419e61830db1f1bdf1b70dd",NA,NA,NA,NA,NA,NA,NA,NA,NA,NA,NA,10673,NA,"{""let_diverse"":""micro""}",NA,NA,NA,NA
NA,NA,NA,NA,NA,"survey-html-form",93,1012522,"0.0-7.0-1.7-0.78","55b2d3f2fdf99b525bc839aa","641387e815ec15c3ccbb8ea1","6419e61830db1f1bdf1b70dd",NA,NA,NA,NA,NA,NA,NA,NA,NA,NA,NA,1631,NA,"{""let_diverse"":""midst""}",NA,NA,NA,NA
NA,NA,NA,NA,NA,"survey-html-form",94,1014461,"0.0-7.0-1.7-0.79","55b2d3f2fdf99b525bc839aa","641387e815ec15c3ccbb8ea1","6419e61830db1f1bdf1b70dd",NA,NA,NA,NA,NA,NA,NA,NA,NA,NA,NA,1938,NA,"{""let_diverse"":""might""}",NA,NA,NA,NA
NA,NA,NA,NA,NA,"survey-html-form",95,1016603,"0.0-7.0-1.7-0.80","55b2d3f2fdf99b525bc839aa","641387e815ec15c3ccbb8ea1","6419e61830db1f1bdf1b70dd",NA,NA,NA,NA,NA,NA,NA,NA,NA,NA,NA,2141,NA,"{""let_diverse"":""minor""}",NA,NA,NA,NA
NA,NA,NA,NA,NA,"survey-html-form",96,1017674,"0.0-7.0-1.7-0.81","55b2d3f2fdf99b525bc839aa","641387e815ec15c3ccbb8ea1","6419e61830db1f1bdf1b70dd",NA,NA,NA,NA,NA,NA,NA,NA,NA,NA,NA,1070,NA,"{""let_diverse"":""mineral""}",NA,NA,NA,NA
NA,NA,NA,NA,NA,"survey-html-form",97,1019282,"0.0-7.0-1.7-0.82","55b2d3f2fdf99b525bc839aa","641387e815ec15c3ccbb8ea1","6419e61830db1f1bdf1b70dd",NA,NA,NA,NA,NA,NA,NA,NA,NA,NA,NA,1607,NA,"{""let_diverse"":""miniature""}",NA,NA,NA,NA
NA,NA,NA,NA,NA,"survey-html-form",98,1020454,"0.0-7.0-1.7-0.83","55b2d3f2fdf99b525bc839aa","641387e815ec15c3ccbb8ea1","6419e61830db1f1bdf1b70dd",NA,NA,NA,NA,NA,NA,NA,NA,NA,NA,NA,1171,NA,"{""let_diverse"":""minimal""}",NA,NA,NA,NA
NA,NA,NA,NA,NA,"survey-html-form",99,1021636,"0.0-7.0-1.7-0.84","55b2d3f2fdf99b525bc839aa","641387e815ec15c3ccbb8ea1","6419e61830db1f1bdf1b70dd",NA,NA,NA,NA,NA,NA,NA,NA,NA,NA,NA,1181,NA,"{""let_diverse"":""minister""}",NA,NA,NA,NA
NA,NA,NA,NA,NA,"survey-html-form",100,1023750,"0.0-7.0-1.7-0.85","55b2d3f2fdf99b525bc839aa","641387e815ec15c3ccbb8ea1","6419e61830db1f1bdf1b70dd",NA,NA,NA,NA,NA,NA,NA,NA,NA,NA,NA,2113,NA,"{""let_diverse"":""migrate""}",NA,NA,NA,NA
NA,NA,NA,NA,NA,"survey-html-form",101,1025924,"0.0-7.0-1.7-0.86","55b2d3f2fdf99b525bc839aa","641387e815ec15c3ccbb8ea1","6419e61830db1f1bdf1b70dd",NA,NA,NA,NA,NA,NA,NA,NA,NA,NA,NA,2173,NA,"{""let_diverse"":""migrant""}",NA,NA,NA,NA
NA,NA,NA,NA,NA,"survey-html-form",102,1029323,"0.0-7.0-1.7-0.87","55b2d3f2fdf99b525bc839aa","641387e815ec15c3ccbb8ea1","6419e61830db1f1bdf1b70dd",NA,NA,NA,NA,NA,NA,NA,NA,NA,NA,NA,3398,NA,"{""let_diverse"":""mince""}",NA,NA,NA,NA
NA,NA,NA,NA,NA,"survey-html-form",103,1030219,"0.0-7.0-1.7-0.88","55b2d3f2fdf99b525bc839aa","641387e815ec15c3ccbb8ea1","6419e61830db1f1bdf1b70dd",NA,NA,NA,NA,NA,NA,NA,NA,NA,NA,NA,NA,NA,NA,NA,NA,"timeout",NA
NA,NA,NA,NA,NA,"sketchpad",104,1092495,"0.0-7.0-0.8","55b2d3f2fdf99b525bc839aa","641387e815ec15c3ccbb8ea1","6419e61830db1f1bdf1b70dd",NA,NA,NA,NA,NA,NA,NA,NA,NA,NA,NA,62256,NA,"button",NA,"55b2d3f2fdf99b525bc839aa_104_image.png",NA,NA
NA,NA,NA,NA,NA,"survey-html-form",105,1101189,"0.0-7.0-1.8-0.89","55b2d3f2fdf99b525bc839aa","641387e815ec15c3ccbb8ea1","6419e61830db1f1bdf1b70dd",NA,NA,NA,NA,NA,NA,NA,NA,NA,NA,NA,8688,NA,"{""let_diverse"":""zoo""}",NA,NA,NA,NA
NA,NA,NA,NA,NA,"survey-html-form",106,1102481,"0.0-7.0-1.8-0.90","55b2d3f2fdf99b525bc839aa","641387e815ec15c3ccbb8ea1","6419e61830db1f1bdf1b70dd",NA,NA,NA,NA,NA,NA,NA,NA,NA,NA,NA,1291,NA,"{""let_diverse"":""zoom""}",NA,NA,NA,NA
NA,NA,NA,NA,NA,"survey-html-form",107,1104929,"0.0-7.0-1.8-0.91","55b2d3f2fdf99b525bc839aa","641387e815ec15c3ccbb8ea1","6419e61830db1f1bdf1b70dd",NA,NA,NA,NA,NA,NA,NA,NA,NA,NA,NA,2447,NA,"{""let_diverse"":""zoology""}",NA,NA,NA,NA
NA,NA,NA,NA,NA,"survey-html-form",108,1107075,"0.0-7.0-1.8-0.92","55b2d3f2fdf99b525bc839aa","641387e815ec15c3ccbb8ea1","6419e61830db1f1bdf1b70dd",NA,NA,NA,NA,NA,NA,NA,NA,NA,NA,NA,2145,NA,"{""let_diverse"":""zoogenic""}",NA,NA,NA,NA
NA,NA,NA,NA,NA,"survey-html-form",109,1110592,"0.0-7.0-1.8-0.93","55b2d3f2fdf99b525bc839aa","641387e815ec15c3ccbb8ea1","6419e61830db1f1bdf1b70dd",NA,NA,NA,NA,NA,NA,NA,NA,NA,NA,NA,3516,NA,"{""let_diverse"":""zoopathology""}",NA,NA,NA,NA
NA,NA,NA,NA,NA,"survey-html-form",110,1116002,"0.0-7.0-1.8-0.94","55b2d3f2fdf99b525bc839aa","641387e815ec15c3ccbb8ea1","6419e61830db1f1bdf1b70dd",NA,NA,NA,NA,NA,NA,NA,NA,NA,NA,NA,5409,NA,"{""let_diverse"":""zone""}",NA,NA,NA,NA
NA,NA,NA,NA,NA,"survey-html-form",111,1121083,"0.0-7.0-1.8-0.95","55b2d3f2fdf99b525bc839aa","641387e815ec15c3ccbb8ea1","6419e61830db1f1bdf1b70dd",NA,NA,NA,NA,NA,NA,NA,NA,NA,NA,NA,5080,NA,"{""let_diverse"":""zone""}",NA,NA,NA,NA
NA,NA,NA,NA,NA,"survey-html-form",112,1122503,"0.0-7.0-1.8-0.96","55b2d3f2fdf99b525bc839aa","641387e815ec15c3ccbb8ea1","6419e61830db1f1bdf1b70dd",NA,NA,NA,NA,NA,NA,NA,NA,NA,NA,NA,NA,NA,NA,NA,NA,"timeout",NA
NA,NA,NA,NA,NA,"sketchpad",113,1178811,"0.0-7.0-0.9","55b2d3f2fdf99b525bc839aa","641387e815ec15c3ccbb8ea1","6419e61830db1f1bdf1b70dd",NA,NA,NA,NA,NA,NA,NA,NA,NA,NA,NA,56286,NA,"button",NA,"55b2d3f2fdf99b525bc839aa_113_image.png",NA,NA
NA,NA,NA,NA,NA,"survey-html-form",114,1190770,"0.0-7.0-1.9-0.97","55b2d3f2fdf99b525bc839aa","641387e815ec15c3ccbb8ea1","6419e61830db1f1bdf1b70dd",NA,NA,NA,NA,NA,NA,NA,NA,NA,NA,NA,11954,NA,"{""let_diverse"":""great""}",NA,NA,NA,NA
NA,NA,NA,NA,NA,"survey-html-form",115,1192302,"0.0-7.0-1.9-0.98","55b2d3f2fdf99b525bc839aa","641387e815ec15c3ccbb8ea1","6419e61830db1f1bdf1b70dd",NA,NA,NA,NA,NA,NA,NA,NA,NA,NA,NA,1531,NA,"{""let_diverse"":""green""}",NA,NA,NA,NA
NA,NA,NA,NA,NA,"survey-html-form",116,1193660,"0.0-7.0-1.9-0.99","55b2d3f2fdf99b525bc839aa","641387e815ec15c3ccbb8ea1","6419e61830db1f1bdf1b70dd",NA,NA,NA,NA,NA,NA,NA,NA,NA,NA,NA,1357,NA,"{""let_diverse"":""grime""}",NA,NA,NA,NA
NA,NA,NA,NA,NA,"survey-html-form",117,1195431,"0.0-7.0-1.9-0.100","55b2d3f2fdf99b525bc839aa","641387e815ec15c3ccbb8ea1","6419e61830db1f1bdf1b70dd",NA,NA,NA,NA,NA,NA,NA,NA,NA,NA,NA,1770,NA,"{""let_diverse"":""gradual""}",NA,NA,NA,NA
NA,NA,NA,NA,NA,"survey-html-form",118,1196589,"0.0-7.0-1.9-0.101","55b2d3f2fdf99b525bc839aa","641387e815ec15c3ccbb8ea1","6419e61830db1f1bdf1b70dd",NA,NA,NA,NA,NA,NA,NA,NA,NA,NA,NA,1157,NA,"{""let_diverse"":""grace""}",NA,NA,NA,NA
NA,NA,NA,NA,NA,"survey-html-form",119,1197712,"0.0-7.0-1.9-0.102","55b2d3f2fdf99b525bc839aa","641387e815ec15c3ccbb8ea1","6419e61830db1f1bdf1b70dd",NA,NA,NA,NA,NA,NA,NA,NA,NA,NA,NA,1122,NA,"{""let_diverse"":""grammar""}",NA,NA,NA,NA
NA,NA,NA,NA,NA,"survey-html-form",120,1198753,"0.0-7.0-1.9-0.103","55b2d3f2fdf99b525bc839aa","641387e815ec15c3ccbb8ea1","6419e61830db1f1bdf1b70dd",NA,NA,NA,NA,NA,NA,NA,NA,NA,NA,NA,1040,NA,"{""let_diverse"":""grand""}",NA,NA,NA,NA
NA,NA,NA,NA,NA,"survey-html-form",121,1199800,"0.0-7.0-1.9-0.104","55b2d3f2fdf99b525bc839aa","641387e815ec15c3ccbb8ea1","6419e61830db1f1bdf1b70dd",NA,NA,NA,NA,NA,NA,NA,NA,NA,NA,NA,1046,NA,"{""let_diverse"":""grasp""}",NA,NA,NA,NA
NA,NA,NA,NA,NA,"survey-html-form",122,1200866,"0.0-7.0-1.9-0.105","55b2d3f2fdf99b525bc839aa","641387e815ec15c3ccbb8ea1","6419e61830db1f1bdf1b70dd",NA,NA,NA,NA,NA,NA,NA,NA,NA,NA,NA,1065,NA,"{""let_diverse"":""grass""}",NA,NA,NA,NA
NA,NA,NA,NA,NA,"survey-html-form",123,1202427,"0.0-7.0-1.9-0.106","55b2d3f2fdf99b525bc839aa","641387e815ec15c3ccbb8ea1","6419e61830db1f1bdf1b70dd",NA,NA,NA,NA,NA,NA,NA,NA,NA,NA,NA,1560,NA,"{""let_diverse"":""grateful""}",NA,NA,NA,NA
NA,NA,NA,NA,NA,"survey-html-form",124,1203732,"0.0-7.0-1.9-0.107","55b2d3f2fdf99b525bc839aa","641387e815ec15c3ccbb8ea1","6419e61830db1f1bdf1b70dd",NA,NA,NA,NA,NA,NA,NA,NA,NA,NA,NA,1304,NA,"{""let_diverse"":""gravy""}",NA,NA,NA,NA
NA,NA,NA,NA,NA,"survey-html-form",125,1206194,"0.0-7.0-1.9-0.108","55b2d3f2fdf99b525bc839aa","641387e815ec15c3ccbb8ea1","6419e61830db1f1bdf1b70dd",NA,NA,NA,NA,NA,NA,NA,NA,NA,NA,NA,2461,NA,"{""let_diverse"":""greece""}",NA,NA,NA,NA
NA,NA,NA,NA,NA,"survey-html-form",126,1207841,"0.0-7.0-1.9-0.109","55b2d3f2fdf99b525bc839aa","641387e815ec15c3ccbb8ea1","6419e61830db1f1bdf1b70dd",NA,NA,NA,NA,NA,NA,NA,NA,NA,NA,NA,1646,NA,"{""let_diverse"":""greet""}",NA,NA,NA,NA
NA,NA,NA,NA,NA,"survey-html-form",127,1208830,"0.0-7.0-1.9-0.110","55b2d3f2fdf99b525bc839aa","641387e815ec15c3ccbb8ea1","6419e61830db1f1bdf1b70dd",NA,NA,NA,NA,NA,NA,NA,NA,NA,NA,NA,NA,NA,NA,NA,NA,"timeout",NA
NA,NA,NA,NA,NA,"instructions",128,1268536,"0.0-8.0","55b2d3f2fdf99b525bc839aa","641387e815ec15c3ccbb8ea1","6419e61830db1f1bdf1b70dd",NA,NA,NA,NA,NA,NA,NA,NA,NA,NA,NA,59706,NA,NA,"[{""page_index"":0,""viewing_time"":59705}]",NA,NA,NA
NA,NA,NA,NA,NA,"instructions",129,1298234,"0.0-9.0","55b2d3f2fdf99b525bc839aa","641387e815ec15c3ccbb8ea1","6419e61830db1f1bdf1b70dd",NA,NA,NA,NA,NA,NA,NA,NA,NA,NA,NA,29698,NA,NA,"[{""page_index"":0,""viewing_time"":19539},{""page_index"":1,""viewing_time"":10158}]",NA,NA,NA
NA,NA,NA,NA,NA,"sketchpad",130,1352468,"0.0-10.0-0.0","55b2d3f2fdf99b525bc839aa","641387e815ec15c3ccbb8ea1","6419e61830db1f1bdf1b70dd",NA,NA,NA,NA,NA,NA,NA,NA,NA,NA,NA,54212,NA,"button",NA,"55b2d3f2fdf99b525bc839aa_130_image.png",NA,NA
NA,NA,NA,NA,NA,"survey-html-form",131,1377520,"0.0-10.0-1.0","55b2d3f2fdf99b525bc839aa","641387e815ec15c3ccbb8ea1","6419e61830db1f1bdf1b70dd",NA,NA,NA,NA,NA,NA,NA,NA,NA,NA,NA,25046,NA,"{""CRAP_diverse"":""brush""}",NA,NA,NA,NA
NA,NA,NA,NA,NA,"sketchpad",132,1432883,"0.0-10.0-0.1","55b2d3f2fdf99b525bc839aa","641387e815ec15c3ccbb8ea1","6419e61830db1f1bdf1b70dd",NA,NA,NA,NA,NA,NA,NA,NA,NA,NA,NA,55342,NA,"button",NA,"55b2d3f2fdf99b525bc839aa_132_image.png",NA,NA
NA,NA,NA,NA,NA,"survey-html-form",133,1439198,"0.0-10.0-1.1","55b2d3f2fdf99b525bc839aa","641387e815ec15c3ccbb8ea1","6419e61830db1f1bdf1b70dd",NA,NA,NA,NA,NA,NA,NA,NA,NA,NA,NA,6310,NA,"{""CRAP_diverse"":""red""}",NA,NA,NA,NA
NA,NA,NA,NA,NA,"sketchpad",134,1491385,"0.0-10.0-0.2","55b2d3f2fdf99b525bc839aa","641387e815ec15c3ccbb8ea1","6419e61830db1f1bdf1b70dd",NA,NA,NA,NA,NA,NA,NA,NA,NA,NA,NA,52165,NA,"button",NA,"55b2d3f2fdf99b525bc839aa_134_image.png",NA,NA
NA,NA,NA,NA,NA,"survey-html-form",135,1498756,"0.0-10.0-1.2","55b2d3f2fdf99b525bc839aa","641387e815ec15c3ccbb8ea1","6419e61830db1f1bdf1b70dd",NA,NA,NA,NA,NA,NA,NA,NA,NA,NA,NA,7365,NA,"{""CRAP_diverse"":""trap""}",NA,NA,NA,NA
NA,NA,NA,NA,NA,"sketchpad",136,1552761,"0.0-10.0-0.3","55b2d3f2fdf99b525bc839aa","641387e815ec15c3ccbb8ea1","6419e61830db1f1bdf1b70dd",NA,NA,NA,NA,NA,NA,NA,NA,NA,NA,NA,53985,NA,"button",NA,"55b2d3f2fdf99b525bc839aa_136_image.png",NA,NA
NA,NA,NA,NA,NA,"survey-html-form",137,1560104,"0.0-10.0-1.3","55b2d3f2fdf99b525bc839aa","641387e815ec15c3ccbb8ea1","6419e61830db1f1bdf1b70dd",NA,NA,NA,NA,NA,NA,NA,NA,NA,NA,NA,7337,NA,"{""CRAP_diverse"":""horn""}",NA,NA,NA,NA
NA,NA,NA,NA,NA,"sketchpad",138,1604350,"0.0-10.0-0.4","55b2d3f2fdf99b525bc839aa","641387e815ec15c3ccbb8ea1","6419e61830db1f1bdf1b70dd",NA,NA,NA,NA,NA,NA,NA,NA,NA,NA,NA,44224,NA,"button",NA,"55b2d3f2fdf99b525bc839aa_138_image.png",NA,NA
NA,NA,NA,NA,NA,"survey-html-form",139,1611621,"0.0-10.0-1.4","55b2d3f2fdf99b525bc839aa","641387e815ec15c3ccbb8ea1","6419e61830db1f1bdf1b70dd",NA,NA,NA,NA,NA,NA,NA,NA,NA,NA,NA,7265,NA,"{""CRAP_diverse"":""soap""}",NA,NA,NA,NA
NA,NA,NA,NA,NA,"sketchpad",140,1649896,"0.0-10.0-0.5","55b2d3f2fdf99b525bc839aa","641387e815ec15c3ccbb8ea1","6419e61830db1f1bdf1b70dd",NA,NA,NA,NA,NA,NA,NA,NA,NA,NA,NA,38255,NA,"button",NA,"55b2d3f2fdf99b525bc839aa_140_image.png",NA,NA
NA,NA,NA,NA,NA,"survey-html-form",141,1660544,"0.0-10.0-1.5","55b2d3f2fdf99b525bc839aa","641387e815ec15c3ccbb8ea1","6419e61830db1f1bdf1b70dd",NA,NA,NA,NA,NA,NA,NA,NA,NA,NA,NA,10643,NA,"{""CRAP_diverse"":""candle""}",NA,NA,NA,NA
NA,NA,NA,NA,NA,"sketchpad",142,1711867,"0.0-10.0-0.6","55b2d3f2fdf99b525bc839aa","641387e815ec15c3ccbb8ea1","6419e61830db1f1bdf1b70dd",NA,NA,NA,NA,NA,NA,NA,NA,NA,NA,NA,51302,NA,"button",NA,"55b2d3f2fdf99b525bc839aa_142_image.png",NA,NA
NA,NA,NA,NA,NA,"survey-html-form",143,1721710,"0.0-10.0-1.6","55b2d3f2fdf99b525bc839aa","641387e815ec15c3ccbb8ea1","6419e61830db1f1bdf1b70dd",NA,NA,NA,NA,NA,NA,NA,NA,NA,NA,NA,9836,NA,"{""CRAP_diverse"":""bowl""}",NA,NA,NA,NA
NA,NA,NA,NA,NA,"sketchpad",144,1750455,"0.0-10.0-0.7","55b2d3f2fdf99b525bc839aa","641387e815ec15c3ccbb8ea1","6419e61830db1f1bdf1b70dd",NA,NA,NA,NA,NA,NA,NA,NA,NA,NA,NA,28726,NA,"button",NA,"55b2d3f2fdf99b525bc839aa_144_image.png",NA,NA
NA,NA,NA,NA,NA,"survey-html-form",145,1757599,"0.0-10.0-1.7","55b2d3f2fdf99b525bc839aa","641387e815ec15c3ccbb8ea1","6419e61830db1f1bdf1b70dd",NA,NA,NA,NA,NA,NA,NA,NA,NA,NA,NA,7138,NA,"{""CRAP_diverse"":""tree""}",NA,NA,NA,NA
NA,NA,NA,NA,NA,"sketchpad",146,1823163,"0.0-10.0-0.8","55b2d3f2fdf99b525bc839aa","641387e815ec15c3ccbb8ea1","6419e61830db1f1bdf1b70dd",NA,NA,NA,NA,NA,NA,NA,NA,NA,NA,NA,65541,NA,"button",NA,"55b2d3f2fdf99b525bc839aa_146_image.png",NA,NA
NA,NA,NA,NA,NA,"survey-html-form",147,1833318,"0.0-10.0-1.8","55b2d3f2fdf99b525bc839aa","641387e815ec15c3ccbb8ea1","6419e61830db1f1bdf1b70dd",NA,NA,NA,NA,NA,NA,NA,NA,NA,NA,NA,10149,NA,"{""CRAP_diverse"":""pot""}",NA,NA,NA,NA
NA,NA,NA,NA,NA,"sketchpad",148,1911747,"0.0-10.0-0.9","55b2d3f2fdf99b525bc839aa","641387e815ec15c3ccbb8ea1","6419e61830db1f1bdf1b70dd",NA,NA,NA,NA,NA,NA,NA,NA,NA,NA,NA,78409,NA,"button",NA,"55b2d3f2fdf99b525bc839aa_148_image.png",NA,NA
NA,NA,NA,NA,NA,"survey-html-form",149,1920341,"0.0-10.0-1.9","55b2d3f2fdf99b525bc839aa","641387e815ec15c3ccbb8ea1","6419e61830db1f1bdf1b70dd",NA,NA,NA,NA,NA,NA,NA,NA,NA,NA,NA,8588,NA,"{""CRAP_diverse"":""boat""}",NA,NA,NA,NA
NA,NA,NA,NA,NA,"instructions",150,1928514,"0.0-11.0","55b2d3f2fdf99b525bc839aa","641387e815ec15c3ccbb8ea1","6419e61830db1f1bdf1b70dd",NA,NA,NA,NA,NA,NA,NA,NA,NA,NA,NA,8173,NA,NA,"[{""page_index"":0,""viewing_time"":8172}]",NA,NA,NA
NA,NA,NA,NA,NA,"survey",151,1976818,"0.0-12.0","55b2d3f2fdf99b525bc839aa","641387e815ec15c3ccbb8ea1","6419e61830db1f1bdf1b70dd",NA,NA,NA,NA,NA,NA,NA,NA,NA,NA,NA,48278,NA,"{""Author"":[""David Harper Townsend"",""F. Scott Fitzgerald"",""E.B. White"",""J.R.R. Tolkien"",""John Grisham"",""Stephen King"",""Tom Clancy"",""S.L. Holloway"",""Keith Cartwright"",""T.C. Boyle"",""Harper Lee"",""T.S. Elliot"",""Arturo Garcia Perez"",""Gabriel Garcia Marquez""]}",NA,NA,NA,"[]"
NA,NA,NA,NA,NA,"survey",152,2004470,"0.0-13.0","55b2d3f2fdf99b525bc839aa","641387e815ec15c3ccbb8ea1","6419e61830db1f1bdf1b70dd",NA,NA,NA,NA,NA,NA,NA,NA,NA,NA,NA,27633,NA,"{""Langauge"":""Yes"",""2ndLanguage"":""spanish"",""2nd_lg_fluency"":5,""SecondLanguage"":"""",""3rd_lg_fluency"":null,""age"":""35"",""Highest_degree"":""Bachelors degree in college (4-year)"",""Handedness"":""Right"",""Race"":[""Spanish, Hispanic, or Latino""],""sexual_orientation"":""straight (heterosexual)"",""gender"":""man""}",NA,NA,NA,"[]"
NA,NA,NA,NA,NA,"survey",153,2006631,"0.0-14.0","55b2d3f2fdf99b525bc839aa","641387e815ec15c3ccbb8ea1","6419e61830db1f1bdf1b70dd",NA,NA,NA,NA,NA,NA,NA,NA,NA,NA,NA,2157,NA,"{""final_comment"":""""}",NA,NA,NA,"[]"
NA,NA,NA,NA,NA,"html-keyboard-response",154,2011865,"0.0-15.0","55b2d3f2fdf99b525bc839aa","641387e815ec15c3ccbb8ea1","6419e61830db1f1bdf1b70dd",NA,NA,NA,NA,NA,NA,NA,NA,NA,NA,NA,5234,"Please press Enter for your results to be saved. Do not close this window; you will be redirected to the Prolific website automatically to get your credit after we received your results. It may take one minute, or longer depending on your internet speed! <p><b>Thank you for your participation :) </b>","enter",NA,NA,NA,NA
TRUE,FALSE,"[]","[]","[]","preload",0,733,"0.0-0.0","561d98e03d7fe8000b0f5e09","641387e815ec15c3ccbb8ea1","6419cd7b716b60141feaca4b",NA,NA,NA,NA,NA,NA,NA,NA,NA,NA,NA,NA,NA,NA,NA,NA,NA,NA
TRUE,NA,NA,NA,NA,"fullscreen",1,4866,"0.0-1.0","561d98e03d7fe8000b0f5e09","641387e815ec15c3ccbb8ea1","6419cd7b716b60141feaca4b",NA,NA,NA,NA,NA,NA,NA,NA,NA,NA,NA,NA,NA,NA,NA,NA,NA,NA
NA,NA,NA,NA,NA,"browser-check",2,5954,"0.0-2.0","561d98e03d7fe8000b0f5e09","641387e815ec15c3ccbb8ea1","6419cd7b716b60141feaca4b",1366,768,TRUE,"chrome","94.0.4606",FALSE,"Windows 8.1",TRUE,61.6,TRUE,TRUE,NA,NA,NA,NA,NA,NA,NA
NA,NA,NA,NA,NA,"html-keyboard-response",3,8528,"0.0-3.0","561d98e03d7fe8000b0f5e09","641387e815ec15c3ccbb8ea1","6419cd7b716b60141feaca4b",NA,NA,NA,NA,NA,NA,NA,NA,NA,NA,NA,2572,"Welcome to the experiment! Press any key to start.","k",NA,NA,NA,NA
NA,NA,NA,NA,NA,"instructions",4,15057,"0.0-4.0","561d98e03d7fe8000b0f5e09","641387e815ec15c3ccbb8ea1","6419cd7b716b60141feaca4b",NA,NA,NA,NA,NA,NA,NA,NA,NA,NA,NA,6527,NA,NA,"[{""page_index"":0,""viewing_time"":6526}]",NA,NA,NA
NA,NA,NA,NA,NA,"instructions",5,59176,"0.0-5.0","561d98e03d7fe8000b0f5e09","641387e815ec15c3ccbb8ea1","6419cd7b716b60141feaca4b",NA,NA,NA,NA,NA,NA,NA,NA,NA,NA,NA,44116,NA,NA,"[{""page_index"":0,""viewing_time"":17651},{""page_index"":1,""viewing_time"":26465}]",NA,NA,NA
NA,NA,NA,NA,NA,"video-keyboard-response",6,117534,"0.0-6.0","561d98e03d7fe8000b0f5e09","641387e815ec15c3ccbb8ea1","6419cd7b716b60141feaca4b",NA,NA,NA,NA,NA,NA,NA,NA,NA,NA,NA,9508,"[""Linear_final.mp4""]","enter",NA,NA,NA,NA
NA,NA,NA,NA,NA,"sketchpad",7,172357,"0.0-7.0-0.0","561d98e03d7fe8000b0f5e09","641387e815ec15c3ccbb8ea1","6419cd7b716b60141feaca4b",NA,NA,NA,NA,NA,NA,NA,NA,NA,NA,NA,54758,NA,"button",NA,"561d98e03d7fe8000b0f5e09_7_image.png",NA,NA
NA,NA,NA,NA,NA,"survey-html-form",8,180586,"0.0-7.0-1.0-0.0","561d98e03d7fe8000b0f5e09","641387e815ec15c3ccbb8ea1","6419cd7b716b60141feaca4b",NA,NA,NA,NA,NA,NA,NA,NA,NA,NA,NA,8210,NA,"{""let_linear"":""eas""}",NA,NA,NA,NA
NA,NA,NA,NA,NA,"survey-html-form",9,188024,"0.0-7.0-1.0-0.1","561d98e03d7fe8000b0f5e09","641387e815ec15c3ccbb8ea1","6419cd7b716b60141feaca4b",NA,NA,NA,NA,NA,NA,NA,NA,NA,NA,NA,7429,NA,"{""let_linear"":""easel""}",NA,NA,NA,NA
NA,NA,NA,NA,NA,"survey-html-form",10,195223,"0.0-7.0-1.0-0.2","561d98e03d7fe8000b0f5e09","641387e815ec15c3ccbb8ea1","6419cd7b716b60141feaca4b",NA,NA,NA,NA,NA,NA,NA,NA,NA,NA,NA,7189,NA,"{""let_linear"":""easily""}",NA,NA,NA,NA
NA,NA,NA,NA,NA,"survey-html-form",11,199396,"0.0-7.0-1.0-0.3","561d98e03d7fe8000b0f5e09","641387e815ec15c3ccbb8ea1","6419cd7b716b60141feaca4b",NA,NA,NA,NA,NA,NA,NA,NA,NA,NA,NA,4163,NA,"{""let_linear"":""each""}",NA,NA,NA,NA
NA,NA,NA,NA,NA,"survey-html-form",12,202384,"0.0-7.0-1.0-0.4","561d98e03d7fe8000b0f5e09","641387e815ec15c3ccbb8ea1","6419cd7b716b60141feaca4b",NA,NA,NA,NA,NA,NA,NA,NA,NA,NA,NA,NA,NA,NA,NA,NA,"timeout",NA
NA,NA,NA,NA,NA,"sketchpad",13,247831,"0.0-7.0-0.1","561d98e03d7fe8000b0f5e09","641387e815ec15c3ccbb8ea1","6419cd7b716b60141feaca4b",NA,NA,NA,NA,NA,NA,NA,NA,NA,NA,NA,45360,NA,"button",NA,"561d98e03d7fe8000b0f5e09_13_image.png",NA,NA
NA,NA,NA,NA,NA,"survey-html-form",14,257440,"0.0-7.0-1.1-0.5","561d98e03d7fe8000b0f5e09","641387e815ec15c3ccbb8ea1","6419cd7b716b60141feaca4b",NA,NA,NA,NA,NA,NA,NA,NA,NA,NA,NA,9587,NA,"{""let_linear"":""street""}",NA,NA,NA,NA
NA,NA,NA,NA,NA,"survey-html-form",15,261093,"0.0-7.0-1.1-0.6","561d98e03d7fe8000b0f5e09","641387e815ec15c3ccbb8ea1","6419cd7b716b60141feaca4b",NA,NA,NA,NA,NA,NA,NA,NA,NA,NA,NA,3642,NA,"{""let_linear"":""stare""}",NA,NA,NA,NA
NA,NA,NA,NA,NA,"survey-html-form",16,264886,"0.0-7.0-1.1-0.7","561d98e03d7fe8000b0f5e09","641387e815ec15c3ccbb8ea1","6419cd7b716b60141feaca4b",NA,NA,NA,NA,NA,NA,NA,NA,NA,NA,NA,3784,NA,"{""let_linear"":""station""}",NA,NA,NA,NA
NA,NA,NA,NA,NA,"survey-html-form",17,267649,"0.0-7.0-1.1-0.8","561d98e03d7fe8000b0f5e09","641387e815ec15c3ccbb8ea1","6419cd7b716b60141feaca4b",NA,NA,NA,NA,NA,NA,NA,NA,NA,NA,NA,2752,NA,"{""let_linear"":""state""}",NA,NA,NA,NA
NA,NA,NA,NA,NA,"survey-html-form",18,271745,"0.0-7.0-1.1-0.9","561d98e03d7fe8000b0f5e09","641387e815ec15c3ccbb8ea1","6419cd7b716b60141feaca4b",NA,NA,NA,NA,NA,NA,NA,NA,NA,NA,NA,4084,NA,"{""let_linear"":""stream""}",NA,NA,NA,NA
NA,NA,NA,NA,NA,"survey-html-form",19,274393,"0.0-7.0-1.1-0.10","561d98e03d7fe8000b0f5e09","641387e815ec15c3ccbb8ea1","6419cd7b716b60141feaca4b",NA,NA,NA,NA,NA,NA,NA,NA,NA,NA,NA,2637,NA,"{""let_linear"":""still""}",NA,NA,NA,NA
NA,NA,NA,NA,NA,"survey-html-form",20,277838,"0.0-7.0-1.1-0.11","561d98e03d7fe8000b0f5e09","641387e815ec15c3ccbb8ea1","6419cd7b716b60141feaca4b",NA,NA,NA,NA,NA,NA,NA,NA,NA,NA,NA,NA,NA,NA,NA,NA,"timeout",NA
NA,NA,NA,NA,NA,"sketchpad",21,314175,"0.0-7.0-0.2","561d98e03d7fe8000b0f5e09","641387e815ec15c3ccbb8ea1","6419cd7b716b60141feaca4b",NA,NA,NA,NA,NA,NA,NA,NA,NA,NA,NA,36248,NA,"button",NA,"561d98e03d7fe8000b0f5e09_21_image.png",NA,NA
NA,NA,NA,NA,NA,"survey-html-form",22,318776,"0.0-7.0-1.2-0.12","561d98e03d7fe8000b0f5e09","641387e815ec15c3ccbb8ea1","6419cd7b716b60141feaca4b",NA,NA,NA,NA,NA,NA,NA,NA,NA,NA,NA,4583,NA,"{""let_linear"":""grr""}",NA,NA,NA,NA
NA,NA,NA,NA,NA,"survey-html-form",23,322625,"0.0-7.0-1.2-0.13","561d98e03d7fe8000b0f5e09","641387e815ec15c3ccbb8ea1","6419cd7b716b60141feaca4b",NA,NA,NA,NA,NA,NA,NA,NA,NA,NA,NA,3840,NA,"{""let_linear"":""growl""}",NA,NA,NA,NA
NA,NA,NA,NA,NA,"survey-html-form",24,326021,"0.0-7.0-1.2-0.14","561d98e03d7fe8000b0f5e09","641387e815ec15c3ccbb8ea1","6419cd7b716b60141feaca4b",NA,NA,NA,NA,NA,NA,NA,NA,NA,NA,NA,3386,NA,"{""let_linear"":""grit""}",NA,NA,NA,NA
NA,NA,NA,NA,NA,"survey-html-form",25,330803,"0.0-7.0-1.2-0.15","561d98e03d7fe8000b0f5e09","641387e815ec15c3ccbb8ea1","6419cd7b716b60141feaca4b",NA,NA,NA,NA,NA,NA,NA,NA,NA,NA,NA,4771,NA,"{""let_linear"":""green""}",NA,NA,NA,NA
NA,NA,NA,NA,NA,"survey-html-form",26,334301,"0.0-7.0-1.2-0.16","561d98e03d7fe8000b0f5e09","641387e815ec15c3ccbb8ea1","6419cd7b716b60141feaca4b",NA,NA,NA,NA,NA,NA,NA,NA,NA,NA,NA,3488,NA,"{""let_linear"":""grill""}",NA,NA,NA,NA
NA,NA,NA,NA,NA,"survey-html-form",27,338234,"0.0-7.0-1.2-0.17","561d98e03d7fe8000b0f5e09","641387e815ec15c3ccbb8ea1","6419cd7b716b60141feaca4b",NA,NA,NA,NA,NA,NA,NA,NA,NA,NA,NA,3923,NA,"{""let_linear"":""greed""}",NA,NA,NA,NA
NA,NA,NA,NA,NA,"survey-html-form",28,344185,"0.0-7.0-1.2-0.18","561d98e03d7fe8000b0f5e09","641387e815ec15c3ccbb8ea1","6419cd7b716b60141feaca4b",NA,NA,NA,NA,NA,NA,NA,NA,NA,NA,NA,NA,NA,NA,NA,NA,"timeout",NA
NA,NA,NA,NA,NA,"sketchpad",29,393913,"0.0-7.0-0.3","561d98e03d7fe8000b0f5e09","641387e815ec15c3ccbb8ea1","6419cd7b716b60141feaca4b",NA,NA,NA,NA,NA,NA,NA,NA,NA,NA,NA,49640,NA,"button",NA,"561d98e03d7fe8000b0f5e09_29_image.png",NA,NA
NA,NA,NA,NA,NA,"survey-html-form",30,398572,"0.0-7.0-1.3-0.19","561d98e03d7fe8000b0f5e09","641387e815ec15c3ccbb8ea1","6419cd7b716b60141feaca4b",NA,NA,NA,NA,NA,NA,NA,NA,NA,NA,NA,4642,NA,"{""let_linear"":""day""}",NA,NA,NA,NA
NA,NA,NA,NA,NA,"survey-html-form",31,402026,"0.0-7.0-1.3-0.20","561d98e03d7fe8000b0f5e09","641387e815ec15c3ccbb8ea1","6419cd7b716b60141feaca4b",NA,NA,NA,NA,NA,NA,NA,NA,NA,NA,NA,3442,NA,"{""let_linear"":""dart""}",NA,NA,NA,NA
NA,NA,NA,NA,NA,"survey-html-form",32,406705,"0.0-7.0-1.3-0.21","561d98e03d7fe8000b0f5e09","641387e815ec15c3ccbb8ea1","6419cd7b716b60141feaca4b",NA,NA,NA,NA,NA,NA,NA,NA,NA,NA,NA,4673,NA,"{""let_linear"":""dark""}",NA,NA,NA,NA
NA,NA,NA,NA,NA,"survey-html-form",33,412579,"0.0-7.0-1.3-0.22","561d98e03d7fe8000b0f5e09","641387e815ec15c3ccbb8ea1","6419cd7b716b60141feaca4b",NA,NA,NA,NA,NA,NA,NA,NA,NA,NA,NA,5861,NA,"{""let_linear"":""dale""}",NA,NA,NA,NA
NA,NA,NA,NA,NA,"survey-html-form",34,418616,"0.0-7.0-1.3-0.23","561d98e03d7fe8000b0f5e09","641387e815ec15c3ccbb8ea1","6419cd7b716b60141feaca4b",NA,NA,NA,NA,NA,NA,NA,NA,NA,NA,NA,6027,NA,"{""let_linear"":""dapper""}",NA,NA,NA,NA
NA,NA,NA,NA,NA,"survey-html-form",35,422322,"0.0-7.0-1.3-0.24","561d98e03d7fe8000b0f5e09","641387e815ec15c3ccbb8ea1","6419cd7b716b60141feaca4b",NA,NA,NA,NA,NA,NA,NA,NA,NA,NA,NA,3695,NA,"{""let_linear"":""date""}",NA,NA,NA,NA
NA,NA,NA,NA,NA,"survey-html-form",36,423926,"0.0-7.0-1.3-0.25","561d98e03d7fe8000b0f5e09","641387e815ec15c3ccbb8ea1","6419cd7b716b60141feaca4b",NA,NA,NA,NA,NA,NA,NA,NA,NA,NA,NA,NA,NA,NA,NA,NA,"timeout",NA
NA,NA,NA,NA,NA,"sketchpad",37,455739,"0.0-7.0-0.4","561d98e03d7fe8000b0f5e09","641387e815ec15c3ccbb8ea1","6419cd7b716b60141feaca4b",NA,NA,NA,NA,NA,NA,NA,NA,NA,NA,NA,31739,NA,"button",NA,"561d98e03d7fe8000b0f5e09_37_image.png",NA,NA
NA,NA,NA,NA,NA,"survey-html-form",38,461193,"0.0-7.0-1.4-0.26","561d98e03d7fe8000b0f5e09","641387e815ec15c3ccbb8ea1","6419cd7b716b60141feaca4b",NA,NA,NA,NA,NA,NA,NA,NA,NA,NA,NA,5437,NA,"{""let_linear"":""zoo""}",NA,NA,NA,NA
NA,NA,NA,NA,NA,"survey-html-form",39,465957,"0.0-7.0-1.4-0.27","561d98e03d7fe8000b0f5e09","641387e815ec15c3ccbb8ea1","6419cd7b716b60141feaca4b",NA,NA,NA,NA,NA,NA,NA,NA,NA,NA,NA,4752,NA,"{""let_linear"":""zone""}",NA,NA,NA,NA
NA,NA,NA,NA,NA,"survey-html-form",40,472193,"0.0-7.0-1.4-0.28","561d98e03d7fe8000b0f5e09","641387e815ec15c3ccbb8ea1","6419cd7b716b60141feaca4b",NA,NA,NA,NA,NA,NA,NA,NA,NA,NA,NA,6223,NA,"{""let_linear"":""zoltan""}",NA,NA,NA,NA
NA,NA,NA,NA,NA,"survey-html-form",41,480167,"0.0-7.0-1.4-0.29","561d98e03d7fe8000b0f5e09","641387e815ec15c3ccbb8ea1","6419cd7b716b60141feaca4b",NA,NA,NA,NA,NA,NA,NA,NA,NA,NA,NA,7969,NA,"{""let_linear"":""zoa""}",NA,NA,NA,NA
NA,NA,NA,NA,NA,"survey-html-form",42,483960,"0.0-7.0-1.4-0.30","561d98e03d7fe8000b0f5e09","641387e815ec15c3ccbb8ea1","6419cd7b716b60141feaca4b",NA,NA,NA,NA,NA,NA,NA,NA,NA,NA,NA,3782,NA,"{""let_linear"":""zoea""}",NA,NA,NA,NA
NA,NA,NA,NA,NA,"survey-html-form",43,485760,"0.0-7.0-1.4-0.31","561d98e03d7fe8000b0f5e09","641387e815ec15c3ccbb8ea1","6419cd7b716b60141feaca4b",NA,NA,NA,NA,NA,NA,NA,NA,NA,NA,NA,NA,NA,NA,NA,NA,"timeout",NA
NA,NA,NA,NA,NA,"sketchpad",44,507629,"0.0-7.0-0.5","561d98e03d7fe8000b0f5e09","641387e815ec15c3ccbb8ea1","6419cd7b716b60141feaca4b",NA,NA,NA,NA,NA,NA,NA,NA,NA,NA,NA,21782,NA,"button",NA,"561d98e03d7fe8000b0f5e09_44_image.png",NA,NA
NA,NA,NA,NA,NA,"survey-html-form",45,514857,"0.0-7.0-1.5-0.32","561d98e03d7fe8000b0f5e09","641387e815ec15c3ccbb8ea1","6419cd7b716b60141feaca4b",NA,NA,NA,NA,NA,NA,NA,NA,NA,NA,NA,7212,NA,"{""let_linear"":""glee""}",NA,NA,NA,NA
NA,NA,NA,NA,NA,"survey-html-form",46,518169,"0.0-7.0-1.5-0.33","561d98e03d7fe8000b0f5e09","641387e815ec15c3ccbb8ea1","6419cd7b716b60141feaca4b",NA,NA,NA,NA,NA,NA,NA,NA,NA,NA,NA,3301,NA,"{""let_linear"":""glare""}",NA,NA,NA,NA
NA,NA,NA,NA,NA,"survey-html-form",47,521340,"0.0-7.0-1.5-0.34","561d98e03d7fe8000b0f5e09","641387e815ec15c3ccbb8ea1","6419cd7b716b60141feaca4b",NA,NA,NA,NA,NA,NA,NA,NA,NA,NA,NA,3162,NA,"{""let_linear"":""glimmer""}",NA,NA,NA,NA
NA,NA,NA,NA,NA,"survey-html-form",48,525389,"0.0-7.0-1.5-0.35","561d98e03d7fe8000b0f5e09","641387e815ec15c3ccbb8ea1","6419cd7b716b60141feaca4b",NA,NA,NA,NA,NA,NA,NA,NA,NA,NA,NA,4040,NA,"{""let_linear"":""glib""}",NA,NA,NA,NA
NA,NA,NA,NA,NA,"survey-html-form",49,531081,"0.0-7.0-1.5-0.36","561d98e03d7fe8000b0f5e09","641387e815ec15c3ccbb8ea1","6419cd7b716b60141feaca4b",NA,NA,NA,NA,NA,NA,NA,NA,NA,NA,NA,5682,NA,"{""let_linear"":""glug""}",NA,NA,NA,NA
NA,NA,NA,NA,NA,"survey-html-form",50,537639,"0.0-7.0-1.5-0.37","561d98e03d7fe8000b0f5e09","641387e815ec15c3ccbb8ea1","6419cd7b716b60141feaca4b",NA,NA,NA,NA,NA,NA,NA,NA,NA,NA,NA,NA,NA,NA,NA,NA,"timeout",NA
NA,NA,NA,NA,NA,"sketchpad",51,567352,"0.0-7.0-0.6","561d98e03d7fe8000b0f5e09","641387e815ec15c3ccbb8ea1","6419cd7b716b60141feaca4b",NA,NA,NA,NA,NA,NA,NA,NA,NA,NA,NA,29629,NA,"button",NA,"561d98e03d7fe8000b0f5e09_51_image.png",NA,NA
NA,NA,NA,NA,NA,"survey-html-form",52,572183,"0.0-7.0-1.6-0.38","561d98e03d7fe8000b0f5e09","641387e815ec15c3ccbb8ea1","6419cd7b716b60141feaca4b",NA,NA,NA,NA,NA,NA,NA,NA,NA,NA,NA,4814,NA,"{""let_linear"":""mini""}",NA,NA,NA,NA
NA,NA,NA,NA,NA,"survey-html-form",53,577348,"0.0-7.0-1.6-0.39","561d98e03d7fe8000b0f5e09","641387e815ec15c3ccbb8ea1","6419cd7b716b60141feaca4b",NA,NA,NA,NA,NA,NA,NA,NA,NA,NA,NA,5155,NA,"{""let_linear"":""miniature""}",NA,NA,NA,NA
NA,NA,NA,NA,NA,"survey-html-form",54,581445,"0.0-7.0-1.6-0.40","561d98e03d7fe8000b0f5e09","641387e815ec15c3ccbb8ea1","6419cd7b716b60141feaca4b",NA,NA,NA,NA,NA,NA,NA,NA,NA,NA,NA,4085,NA,"{""let_linear"":""mix""}",NA,NA,NA,NA
NA,NA,NA,NA,NA,"survey-html-form",55,584956,"0.0-7.0-1.6-0.41","561d98e03d7fe8000b0f5e09","641387e815ec15c3ccbb8ea1","6419cd7b716b60141feaca4b",NA,NA,NA,NA,NA,NA,NA,NA,NA,NA,NA,3501,NA,"{""let_linear"":""milk""}",NA,NA,NA,NA
NA,NA,NA,NA,NA,"survey-html-form",56,587443,"0.0-7.0-1.6-0.42","561d98e03d7fe8000b0f5e09","641387e815ec15c3ccbb8ea1","6419cd7b716b60141feaca4b",NA,NA,NA,NA,NA,NA,NA,NA,NA,NA,NA,2476,NA,"{""let_linear"":""mile""}",NA,NA,NA,NA
NA,NA,NA,NA,NA,"survey-html-form",57,590935,"0.0-7.0-1.6-0.43","561d98e03d7fe8000b0f5e09","641387e815ec15c3ccbb8ea1","6419cd7b716b60141feaca4b",NA,NA,NA,NA,NA,NA,NA,NA,NA,NA,NA,3482,NA,"{""let_linear"":""miter""}",NA,NA,NA,NA
NA,NA,NA,NA,NA,"survey-html-form",58,596131,"0.0-7.0-1.6-0.44","561d98e03d7fe8000b0f5e09","641387e815ec15c3ccbb8ea1","6419cd7b716b60141feaca4b",NA,NA,NA,NA,NA,NA,NA,NA,NA,NA,NA,5185,NA,"{""let_linear"":""milt""}",NA,NA,NA,NA
NA,NA,NA,NA,NA,"survey-html-form",59,597364,"0.0-7.0-1.6-0.45","561d98e03d7fe8000b0f5e09","641387e815ec15c3ccbb8ea1","6419cd7b716b60141feaca4b",NA,NA,NA,NA,NA,NA,NA,NA,NA,NA,NA,NA,NA,NA,NA,NA,"timeout",NA
NA,NA,NA,NA,NA,"sketchpad",60,651566,"0.0-7.0-0.7","561d98e03d7fe8000b0f5e09","641387e815ec15c3ccbb8ea1","6419cd7b716b60141feaca4b",NA,NA,NA,NA,NA,NA,NA,NA,NA,NA,NA,54137,NA,"button",NA,"561d98e03d7fe8000b0f5e09_60_image.png",NA,NA
NA,NA,NA,NA,NA,"survey-html-form",61,657824,"0.0-7.0-1.7-0.46","561d98e03d7fe8000b0f5e09","641387e815ec15c3ccbb8ea1","6419cd7b716b60141feaca4b",NA,NA,NA,NA,NA,NA,NA,NA,NA,NA,NA,6240,NA,"{""let_linear"":""lease""}",NA,NA,NA,NA
NA,NA,NA,NA,NA,"survey-html-form",62,661003,"0.0-7.0-1.7-0.47","561d98e03d7fe8000b0f5e09","641387e815ec15c3ccbb8ea1","6419cd7b716b60141feaca4b",NA,NA,NA,NA,NA,NA,NA,NA,NA,NA,NA,3167,NA,"{""let_linear"":""lea""}",NA,NA,NA,NA
NA,NA,NA,NA,NA,"survey-html-form",63,664102,"0.0-7.0-1.7-0.48","561d98e03d7fe8000b0f5e09","641387e815ec15c3ccbb8ea1","6419cd7b716b60141feaca4b",NA,NA,NA,NA,NA,NA,NA,NA,NA,NA,NA,3085,NA,"{""let_linear"":""lean""}",NA,NA,NA,NA
NA,NA,NA,NA,NA,"survey-html-form",64,672429,"0.0-7.0-1.7-0.49","561d98e03d7fe8000b0f5e09","641387e815ec15c3ccbb8ea1","6419cd7b716b60141feaca4b",NA,NA,NA,NA,NA,NA,NA,NA,NA,NA,NA,8315,NA,"{""let_linear"":""lear""}",NA,NA,NA,NA
NA,NA,NA,NA,NA,"survey-html-form",65,675978,"0.0-7.0-1.7-0.50","561d98e03d7fe8000b0f5e09","641387e815ec15c3ccbb8ea1","6419cd7b716b60141feaca4b",NA,NA,NA,NA,NA,NA,NA,NA,NA,NA,NA,3538,NA,"{""let_linear"":""lee""}",NA,NA,NA,NA
NA,NA,NA,NA,NA,"survey-html-form",66,681305,"0.0-7.0-1.7-0.51","561d98e03d7fe8000b0f5e09","641387e815ec15c3ccbb8ea1","6419cd7b716b60141feaca4b",NA,NA,NA,NA,NA,NA,NA,NA,NA,NA,NA,5315,NA,"{""let_linear"":""leap""}",NA,NA,NA,NA
NA,NA,NA,NA,NA,"survey-html-form",67,681578,"0.0-7.0-1.7-0.52","561d98e03d7fe8000b0f5e09","641387e815ec15c3ccbb8ea1","6419cd7b716b60141feaca4b",NA,NA,NA,NA,NA,NA,NA,NA,NA,NA,NA,NA,NA,NA,NA,NA,"timeout",NA
NA,NA,NA,NA,NA,"sketchpad",68,720686,"0.0-7.0-0.8","561d98e03d7fe8000b0f5e09","641387e815ec15c3ccbb8ea1","6419cd7b716b60141feaca4b",NA,NA,NA,NA,NA,NA,NA,NA,NA,NA,NA,39028,NA,"button",NA,"561d98e03d7fe8000b0f5e09_68_image.png",NA,NA
NA,NA,NA,NA,NA,"survey-html-form",69,727002,"0.0-7.0-1.8-0.53","561d98e03d7fe8000b0f5e09","641387e815ec15c3ccbb8ea1","6419cd7b716b60141feaca4b",NA,NA,NA,NA,NA,NA,NA,NA,NA,NA,NA,6301,NA,"{""let_linear"":""prey""}",NA,NA,NA,NA
NA,NA,NA,NA,NA,"survey-html-form",70,730124,"0.0-7.0-1.8-0.54","561d98e03d7fe8000b0f5e09","641387e815ec15c3ccbb8ea1","6419cd7b716b60141feaca4b",NA,NA,NA,NA,NA,NA,NA,NA,NA,NA,NA,3116,NA,"{""let_linear"":""pray""}",NA,NA,NA,NA
NA,NA,NA,NA,NA,"survey-html-form",71,733908,"0.0-7.0-1.8-0.55","561d98e03d7fe8000b0f5e09","641387e815ec15c3ccbb8ea1","6419cd7b716b60141feaca4b",NA,NA,NA,NA,NA,NA,NA,NA,NA,NA,NA,3774,NA,"{""let_linear"":""probe""}",NA,NA,NA,NA
NA,NA,NA,NA,NA,"survey-html-form",72,739269,"0.0-7.0-1.8-0.56","561d98e03d7fe8000b0f5e09","641387e815ec15c3ccbb8ea1","6419cd7b716b60141feaca4b",NA,NA,NA,NA,NA,NA,NA,NA,NA,NA,NA,5347,NA,"{""let_linear"":""pretend""}",NA,NA,NA,NA
NA,NA,NA,NA,NA,"survey-html-form",73,745063,"0.0-7.0-1.8-0.57","561d98e03d7fe8000b0f5e09","641387e815ec15c3ccbb8ea1","6419cd7b716b60141feaca4b",NA,NA,NA,NA,NA,NA,NA,NA,NA,NA,NA,5782,NA,"{""let_linear"":""prayer""}",NA,NA,NA,NA
NA,NA,NA,NA,NA,"survey-html-form",74,750074,"0.0-7.0-1.8-0.58","561d98e03d7fe8000b0f5e09","641387e815ec15c3ccbb8ea1","6419cd7b716b60141feaca4b",NA,NA,NA,NA,NA,NA,NA,NA,NA,NA,NA,5000,NA,"{""let_linear"":""prawn""}",NA,NA,NA,NA
NA,NA,NA,NA,NA,"survey-html-form",75,750696,"0.0-7.0-1.8-0.59","561d98e03d7fe8000b0f5e09","641387e815ec15c3ccbb8ea1","6419cd7b716b60141feaca4b",NA,NA,NA,NA,NA,NA,NA,NA,NA,NA,NA,NA,NA,NA,NA,NA,"timeout",NA
NA,NA,NA,NA,NA,"sketchpad",76,770995,"0.0-7.0-0.9","561d98e03d7fe8000b0f5e09","641387e815ec15c3ccbb8ea1","6419cd7b716b60141feaca4b",NA,NA,NA,NA,NA,NA,NA,NA,NA,NA,NA,20218,NA,"button",NA,"561d98e03d7fe8000b0f5e09_76_image.png",NA,NA
NA,NA,NA,NA,NA,"survey-html-form",77,778975,"0.0-7.0-1.9-0.60","561d98e03d7fe8000b0f5e09","641387e815ec15c3ccbb8ea1","6419cd7b716b60141feaca4b",NA,NA,NA,NA,NA,NA,NA,NA,NA,NA,NA,7964,NA,"{""let_linear"":""abdomen""}",NA,NA,NA,NA
NA,NA,NA,NA,NA,"survey-html-form",78,781734,"0.0-7.0-1.9-0.61","561d98e03d7fe8000b0f5e09","641387e815ec15c3ccbb8ea1","6419cd7b716b60141feaca4b",NA,NA,NA,NA,NA,NA,NA,NA,NA,NA,NA,2747,NA,"{""let_linear"":""abhore""}",NA,NA,NA,NA
NA,NA,NA,NA,NA,"survey-html-form",79,786086,"0.0-7.0-1.9-0.62","561d98e03d7fe8000b0f5e09","641387e815ec15c3ccbb8ea1","6419cd7b716b60141feaca4b",NA,NA,NA,NA,NA,NA,NA,NA,NA,NA,NA,4342,NA,"{""let_linear"":""abhorrent""}",NA,NA,NA,NA
NA,NA,NA,NA,NA,"survey-html-form",80,789979,"0.0-7.0-1.9-0.63","561d98e03d7fe8000b0f5e09","641387e815ec15c3ccbb8ea1","6419cd7b716b60141feaca4b",NA,NA,NA,NA,NA,NA,NA,NA,NA,NA,NA,3884,NA,"{""let_linear"":""abdominable""}",NA,NA,NA,NA
NA,NA,NA,NA,NA,"survey-html-form",81,792926,"0.0-7.0-1.9-0.64","561d98e03d7fe8000b0f5e09","641387e815ec15c3ccbb8ea1","6419cd7b716b60141feaca4b",NA,NA,NA,NA,NA,NA,NA,NA,NA,NA,NA,2936,NA,"{""let_linear"":""able""}",NA,NA,NA,NA
NA,NA,NA,NA,NA,"survey-html-form",82,796506,"0.0-7.0-1.9-0.65","561d98e03d7fe8000b0f5e09","641387e815ec15c3ccbb8ea1","6419cd7b716b60141feaca4b",NA,NA,NA,NA,NA,NA,NA,NA,NA,NA,NA,3569,NA,"{""let_linear"":""ability""}",NA,NA,NA,NA
NA,NA,NA,NA,NA,"survey-html-form",83,801011,"0.0-7.0-1.9-0.66","561d98e03d7fe8000b0f5e09","641387e815ec15c3ccbb8ea1","6419cd7b716b60141feaca4b",NA,NA,NA,NA,NA,NA,NA,NA,NA,NA,NA,NA,NA,NA,NA,NA,"timeout",NA
NA,NA,NA,NA,NA,"instructions",84,805914,"0.0-8.0","561d98e03d7fe8000b0f5e09","641387e815ec15c3ccbb8ea1","6419cd7b716b60141feaca4b",NA,NA,NA,NA,NA,NA,NA,NA,NA,NA,NA,4901,NA,NA,"[{""page_index"":0,""viewing_time"":4899}]",NA,NA,NA
NA,NA,NA,NA,NA,"instructions",85,859812,"0.0-9.0","561d98e03d7fe8000b0f5e09","641387e815ec15c3ccbb8ea1","6419cd7b716b60141feaca4b",NA,NA,NA,NA,NA,NA,NA,NA,NA,NA,NA,53896,NA,NA,"[{""page_index"":0,""viewing_time"":33707},{""page_index"":1,""viewing_time"":20188}]",NA,NA,NA
NA,NA,NA,NA,NA,"sketchpad",86,894865,"0.0-10.0-0.0","561d98e03d7fe8000b0f5e09","641387e815ec15c3ccbb8ea1","6419cd7b716b60141feaca4b",NA,NA,NA,NA,NA,NA,NA,NA,NA,NA,NA,34959,NA,"button",NA,"561d98e03d7fe8000b0f5e09_86_image.png",NA,NA
NA,NA,NA,NA,NA,"survey-html-form",87,904486,"0.0-10.0-1.0","561d98e03d7fe8000b0f5e09","641387e815ec15c3ccbb8ea1","6419cd7b716b60141feaca4b",NA,NA,NA,NA,NA,NA,NA,NA,NA,NA,NA,9602,NA,"{""CRAP_linear"":""birthday candle""}",NA,NA,NA,NA
NA,NA,NA,NA,NA,"sketchpad",88,971397,"0.0-10.0-0.1","561d98e03d7fe8000b0f5e09","641387e815ec15c3ccbb8ea1","6419cd7b716b60141feaca4b",NA,NA,NA,NA,NA,NA,NA,NA,NA,NA,NA,66833,NA,"button",NA,"561d98e03d7fe8000b0f5e09_88_image.png",NA,NA
NA,NA,NA,NA,NA,"survey-html-form",89,981334,"0.0-10.0-1.1","561d98e03d7fe8000b0f5e09","641387e815ec15c3ccbb8ea1","6419cd7b716b60141feaca4b",NA,NA,NA,NA,NA,NA,NA,NA,NA,NA,NA,9919,NA,"{""CRAP_linear"":""carpet stain""}",NA,NA,NA,NA
NA,NA,NA,NA,NA,"sketchpad",90,1011410,"0.0-10.0-0.2","561d98e03d7fe8000b0f5e09","641387e815ec15c3ccbb8ea1","6419cd7b716b60141feaca4b",NA,NA,NA,NA,NA,NA,NA,NA,NA,NA,NA,29991,NA,"button",NA,"561d98e03d7fe8000b0f5e09_90_image.png",NA,NA
NA,NA,NA,NA,NA,"survey-html-form",91,1036776,"0.0-10.0-1.2","561d98e03d7fe8000b0f5e09","641387e815ec15c3ccbb8ea1","6419cd7b716b60141feaca4b",NA,NA,NA,NA,NA,NA,NA,NA,NA,NA,NA,25351,NA,"{""CRAP_linear"":""painted hairbrush""}",NA,NA,NA,NA
NA,NA,NA,NA,NA,"sketchpad",92,1081022,"0.0-10.0-0.3","561d98e03d7fe8000b0f5e09","641387e815ec15c3ccbb8ea1","6419cd7b716b60141feaca4b",NA,NA,NA,NA,NA,NA,NA,NA,NA,NA,NA,44155,NA,"button",NA,"561d98e03d7fe8000b0f5e09_92_image.png",NA,NA
NA,NA,NA,NA,NA,"survey-html-form",93,1088950,"0.0-10.0-1.3","561d98e03d7fe8000b0f5e09","641387e815ec15c3ccbb8ea1","6419cd7b716b60141feaca4b",NA,NA,NA,NA,NA,NA,NA,NA,NA,NA,NA,7913,NA,"{""CRAP_linear"":""beach shoe""}",NA,NA,NA,NA
NA,NA,NA,NA,NA,"sketchpad",94,1119058,"0.0-10.0-0.4","561d98e03d7fe8000b0f5e09","641387e815ec15c3ccbb8ea1","6419cd7b716b60141feaca4b",NA,NA,NA,NA,NA,NA,NA,NA,NA,NA,NA,30030,NA,"button",NA,"561d98e03d7fe8000b0f5e09_94_image.png",NA,NA
NA,NA,NA,NA,NA,"survey-html-form",95,1135626,"0.0-10.0-1.4","561d98e03d7fe8000b0f5e09","641387e815ec15c3ccbb8ea1","6419cd7b716b60141feaca4b",NA,NA,NA,NA,NA,NA,NA,NA,NA,NA,NA,16554,NA,"{""CRAP_linear"":""boat show""}",NA,NA,NA,NA
NA,NA,NA,NA,NA,"sketchpad",96,1159001,"0.0-10.0-0.5","561d98e03d7fe8000b0f5e09","641387e815ec15c3ccbb8ea1","6419cd7b716b60141feaca4b",NA,NA,NA,NA,NA,NA,NA,NA,NA,NA,NA,23266,NA,"button",NA,"561d98e03d7fe8000b0f5e09_96_image.png",NA,NA
NA,NA,NA,NA,NA,"survey-html-form",97,1189010,"0.0-10.0-1.5","561d98e03d7fe8000b0f5e09","641387e815ec15c3ccbb8ea1","6419cd7b716b60141feaca4b",NA,NA,NA,NA,NA,NA,NA,NA,NA,NA,NA,NA,NA,NA,NA,NA,"timeout",NA
NA,NA,NA,NA,NA,"sketchpad",98,1220817,"0.0-10.0-0.6","561d98e03d7fe8000b0f5e09","641387e815ec15c3ccbb8ea1","6419cd7b716b60141feaca4b",NA,NA,NA,NA,NA,NA,NA,NA,NA,NA,NA,31713,NA,"button",NA,"561d98e03d7fe8000b0f5e09_98_image.png",NA,NA
NA,NA,NA,NA,NA,"survey-html-form",99,1233188,"0.0-10.0-1.6","561d98e03d7fe8000b0f5e09","641387e815ec15c3ccbb8ea1","6419cd7b716b60141feaca4b",NA,NA,NA,NA,NA,NA,NA,NA,NA,NA,NA,12356,NA,"{""CRAP_linear"":""goldfish cracker""}",NA,NA,NA,NA
NA,NA,NA,NA,NA,"sketchpad",100,1269955,"0.0-10.0-0.7","561d98e03d7fe8000b0f5e09","641387e815ec15c3ccbb8ea1","6419cd7b716b60141feaca4b",NA,NA,NA,NA,NA,NA,NA,NA,NA,NA,NA,36685,NA,"button",NA,"561d98e03d7fe8000b0f5e09_100_image.png",NA,NA
NA,NA,NA,NA,NA,"survey-html-form",101,1283104,"0.0-10.0-1.7","561d98e03d7fe8000b0f5e09","641387e815ec15c3ccbb8ea1","6419cd7b716b60141feaca4b",NA,NA,NA,NA,NA,NA,NA,NA,NA,NA,NA,13133,NA,"{""CRAP_linear"":""opera glass""}",NA,NA,NA,NA
NA,NA,NA,NA,NA,"sketchpad",102,1318767,"0.0-10.0-0.8","561d98e03d7fe8000b0f5e09","641387e815ec15c3ccbb8ea1","6419cd7b716b60141feaca4b",NA,NA,NA,NA,NA,NA,NA,NA,NA,NA,NA,35582,NA,"button",NA,"561d98e03d7fe8000b0f5e09_102_image.png",NA,NA
NA,NA,NA,NA,NA,"survey-html-form",103,1348776,"0.0-10.0-1.8","561d98e03d7fe8000b0f5e09","641387e815ec15c3ccbb8ea1","6419cd7b716b60141feaca4b",NA,NA,NA,NA,NA,NA,NA,NA,NA,NA,NA,NA,NA,NA,NA,NA,"timeout",NA
NA,NA,NA,NA,NA,"sketchpad",104,1376093,"0.0-10.0-0.9","561d98e03d7fe8000b0f5e09","641387e815ec15c3ccbb8ea1","6419cd7b716b60141feaca4b",NA,NA,NA,NA,NA,NA,NA,NA,NA,NA,NA,27239,NA,"button",NA,"561d98e03d7fe8000b0f5e09_104_image.png",NA,NA
NA,NA,NA,NA,NA,"survey-html-form",105,1393391,"0.0-10.0-1.9","561d98e03d7fe8000b0f5e09","641387e815ec15c3ccbb8ea1","6419cd7b716b60141feaca4b",NA,NA,NA,NA,NA,NA,NA,NA,NA,NA,NA,17280,NA,"{""CRAP_linear"":""peugot brakes""}",NA,NA,NA,NA
NA,NA,NA,NA,NA,"instructions",106,1401263,"0.0-11.0","561d98e03d7fe8000b0f5e09","641387e815ec15c3ccbb8ea1","6419cd7b716b60141feaca4b",NA,NA,NA,NA,NA,NA,NA,NA,NA,NA,NA,7869,NA,NA,"[{""page_index"":0,""viewing_time"":7866}]",NA,NA,NA
NA,NA,NA,NA,NA,"survey",107,1530684,"0.0-12.0","561d98e03d7fe8000b0f5e09","641387e815ec15c3ccbb8ea1","6419cd7b716b60141feaca4b",NA,NA,NA,NA,NA,NA,NA,NA,NA,NA,NA,129310,NA,"{""Author"":[""Virginia Woolf"",""Toni Morrison"",""Salmon Rushdie"",""Kurt Vonnegut"",""Margaret Mitchell"",""Robert Ludlum"",""F. Scott Fitzgerald"",""Nelson Demille"",""Willa Cather"",""James Patterson"",""George Orwell"",""Isaac Asimov"",""Judith Krantz"",""Samuel Beckett"",""E.B. White"",""James Joyce"",""Margaret Atwood"",""Clive Cussler"",""Ray Bradbury"",""J.R.R. Tolkien"",""Ayn Rand"",""Sue Grafton"",""Sidney Sheldon"",""Jackie Collins"",""Joyce Carol Oates"",""Thomas Wolfe"",""John Irving"",""Nora Ephron"",""James Michener"",""Stephen King"",""Tom Clancy"",""Ralph Ellison"",""Ernest Hemingway"",""Tony Hillerman"",""Herman Wouk"",""Jean M. Auel"",""Harper Lee"",""T.S. Elliot"",""Jack London"",""J.D. Salinger"",""Arturo Garcia Perez"",""Wally Lamb"",""Danielle Steel"",""Maya Angelou"",""Saul Bellow"",""Thomas Pynchon"",""Gabriel Garcia Marquez""]}",NA,NA,NA,"[]"
NA,NA,NA,NA,NA,"survey",108,1571772,"0.0-13.0","561d98e03d7fe8000b0f5e09","641387e815ec15c3ccbb8ea1","6419cd7b716b60141feaca4b",NA,NA,NA,NA,NA,NA,NA,NA,NA,NA,NA,41007,NA,"{""Langauge"":""Yes"",""2ndLanguage"":""no"",""2nd_lg_fluency"":null,""SecondLanguage"":""no"",""3rd_lg_fluency"":null,""age"":""65"",""Highest_degree"":""Masters degree"",""Handedness"":""Right"",""Race"":[""White""],""sexual_orientation"":""straight (heterosexual)"",""gender"":""woman""}",NA,NA,NA,"[]"
NA,NA,NA,NA,NA,"survey",109,1576052,"0.0-14.0","561d98e03d7fe8000b0f5e09","641387e815ec15c3ccbb8ea1","6419cd7b716b60141feaca4b",NA,NA,NA,NA,NA,NA,NA,NA,NA,NA,NA,4262,NA,"{""final_comment"":""""}",NA,NA,NA,"[]"
NA,NA,NA,NA,NA,"html-keyboard-response",110,1583451,"0.0-15.0","561d98e03d7fe8000b0f5e09","641387e815ec15c3ccbb8ea1","6419cd7b716b60141feaca4b",NA,NA,NA,NA,NA,NA,NA,NA,NA,NA,NA,7396,"Please press Enter for your results to be saved. Do not close this window; you will be redirected to the Prolific website automatically to get your credit after we received your results. It may take one minute, or longer depending on your internet speed! <p><b>Thank you for your participation :) </b>","enter",NA,NA,NA,NA
TRUE,FALSE,"[]","[]","[]","preload",0,82,"0.0-0.0","572036a1fd3a5200093c126b","641387e815ec15c3ccbb8ea1","6419d34d077b103bdab8cf11",NA,NA,NA,NA,NA,NA,NA,NA,NA,NA,NA,NA,NA,NA,NA,NA,NA,NA
TRUE,NA,NA,NA,NA,"fullscreen",1,2631,"0.0-1.0","572036a1fd3a5200093c126b","641387e815ec15c3ccbb8ea1","6419d34d077b103bdab8cf11",NA,NA,NA,NA,NA,NA,NA,NA,NA,NA,NA,NA,NA,NA,NA,NA,NA,NA
NA,NA,NA,NA,NA,"browser-check",2,3644,"0.0-2.0","572036a1fd3a5200093c126b","641387e815ec15c3ccbb8ea1","6419d34d077b103bdab8cf11",1920,1080,TRUE,"chrome","111.0.0",FALSE,"Windows 10",TRUE,59.93,TRUE,TRUE,NA,NA,NA,NA,NA,NA,NA
NA,NA,NA,NA,NA,"html-keyboard-response",3,5575,"0.0-3.0","572036a1fd3a5200093c126b","641387e815ec15c3ccbb8ea1","6419d34d077b103bdab8cf11",NA,NA,NA,NA,NA,NA,NA,NA,NA,NA,NA,1931,"Welcome to the experiment! Press any key to start.",NA,NA,NA,NA,NA
NA,NA,NA,NA,NA,"instructions",4,8463,"0.0-4.0","572036a1fd3a5200093c126b","641387e815ec15c3ccbb8ea1","6419d34d077b103bdab8cf11",NA,NA,NA,NA,NA,NA,NA,NA,NA,NA,NA,2887,NA,NA,"[{""page_index"":0,""viewing_time"":2887}]",NA,NA,NA
NA,NA,NA,NA,NA,"instructions",5,122299,"0.0-5.0","572036a1fd3a5200093c126b","641387e815ec15c3ccbb8ea1","6419d34d077b103bdab8cf11",NA,NA,NA,NA,NA,NA,NA,NA,NA,NA,NA,113831,NA,NA,"[{""page_index"":0,""viewing_time"":75849},{""page_index"":1,""viewing_time"":37982}]",NA,NA,NA
NA,NA,NA,NA,NA,"video-keyboard-response",6,182893,"0.0-6.0","572036a1fd3a5200093c126b","641387e815ec15c3ccbb8ea1","6419d34d077b103bdab8cf11",NA,NA,NA,NA,NA,NA,NA,NA,NA,NA,NA,14561,"[""Linear_final.mp4""]","enter",NA,NA,NA,NA
NA,NA,NA,NA,NA,"sketchpad",7,217656,"0.0-7.0-0.0","572036a1fd3a5200093c126b","641387e815ec15c3ccbb8ea1","6419d34d077b103bdab8cf11",NA,NA,NA,NA,NA,NA,NA,NA,NA,NA,NA,34684,NA,"button",NA,"572036a1fd3a5200093c126b_7_image.png",NA,NA
NA,NA,NA,NA,NA,"survey-html-form",8,230515,"0.0-7.0-1.0","572036a1fd3a5200093c126b","641387e815ec15c3ccbb8ea1","6419d34d077b103bdab8cf11",NA,NA,NA,NA,NA,NA,NA,NA,NA,NA,NA,12842,NA,"{""CRAP_linear"":""horn""}",NA,NA,NA,NA
NA,NA,NA,NA,NA,"sketchpad",9,272024,"0.0-7.0-0.1","572036a1fd3a5200093c126b","641387e815ec15c3ccbb8ea1","6419d34d077b103bdab8cf11",NA,NA,NA,NA,NA,NA,NA,NA,NA,NA,NA,41465,NA,"button",NA,"572036a1fd3a5200093c126b_9_image.png",NA,NA
NA,NA,NA,NA,NA,"survey-html-form",10,282219,"0.0-7.0-1.1","572036a1fd3a5200093c126b","641387e815ec15c3ccbb8ea1","6419d34d077b103bdab8cf11",NA,NA,NA,NA,NA,NA,NA,NA,NA,NA,NA,10181,NA,"{""CRAP_linear"":""red""}",NA,NA,NA,NA
NA,NA,NA,NA,NA,"sketchpad",11,313831,"0.0-7.0-0.2","572036a1fd3a5200093c126b","641387e815ec15c3ccbb8ea1","6419d34d077b103bdab8cf11",NA,NA,NA,NA,NA,NA,NA,NA,NA,NA,NA,31550,NA,"button",NA,"572036a1fd3a5200093c126b_11_image.png",NA,NA
NA,NA,NA,NA,NA,"survey-html-form",12,322762,"0.0-7.0-1.2","572036a1fd3a5200093c126b","641387e815ec15c3ccbb8ea1","6419d34d077b103bdab8cf11",NA,NA,NA,NA,NA,NA,NA,NA,NA,NA,NA,8907,NA,"{""CRAP_linear"":""trap""}",NA,NA,NA,NA
NA,NA,NA,NA,NA,"sketchpad",13,356983,"0.0-7.0-0.3","572036a1fd3a5200093c126b","641387e815ec15c3ccbb8ea1","6419d34d077b103bdab8cf11",NA,NA,NA,NA,NA,NA,NA,NA,NA,NA,NA,34174,NA,"button",NA,"572036a1fd3a5200093c126b_13_image.png",NA,NA
NA,NA,NA,NA,NA,"survey-html-form",14,364761,"0.0-7.0-1.3","572036a1fd3a5200093c126b","641387e815ec15c3ccbb8ea1","6419d34d077b103bdab8cf11",NA,NA,NA,NA,NA,NA,NA,NA,NA,NA,NA,7764,NA,"{""CRAP_linear"":""pot""}",NA,NA,NA,NA
NA,NA,NA,NA,NA,"sketchpad",15,400034,"0.0-7.0-0.4","572036a1fd3a5200093c126b","641387e815ec15c3ccbb8ea1","6419d34d077b103bdab8cf11",NA,NA,NA,NA,NA,NA,NA,NA,NA,NA,NA,35215,NA,"button",NA,"572036a1fd3a5200093c126b_15_image.png",NA,NA
NA,NA,NA,NA,NA,"survey-html-form",16,413565,"0.0-7.0-1.4","572036a1fd3a5200093c126b","641387e815ec15c3ccbb8ea1","6419d34d077b103bdab8cf11",NA,NA,NA,NA,NA,NA,NA,NA,NA,NA,NA,13517,NA,"{""CRAP_linear"":""brush""}",NA,NA,NA,NA
NA,NA,NA,NA,NA,"sketchpad",17,446104,"0.0-7.0-0.5","572036a1fd3a5200093c126b","641387e815ec15c3ccbb8ea1","6419d34d077b103bdab8cf11",NA,NA,NA,NA,NA,NA,NA,NA,NA,NA,NA,32472,NA,"button",NA,"572036a1fd3a5200093c126b_17_image.png",NA,NA
NA,NA,NA,NA,NA,"survey-html-form",18,459658,"0.0-7.0-1.5","572036a1fd3a5200093c126b","641387e815ec15c3ccbb8ea1","6419d34d077b103bdab8cf11",NA,NA,NA,NA,NA,NA,NA,NA,NA,NA,NA,13529,NA,"{""CRAP_linear"":""boat""}",NA,NA,NA,NA
NA,NA,NA,NA,NA,"sketchpad",19,481825,"0.0-7.0-0.6","572036a1fd3a5200093c126b","641387e815ec15c3ccbb8ea1","6419d34d077b103bdab8cf11",NA,NA,NA,NA,NA,NA,NA,NA,NA,NA,NA,22123,NA,"button",NA,"572036a1fd3a5200093c126b_19_image.png",NA,NA
NA,NA,NA,NA,NA,"survey-html-form",20,493776,"0.0-7.0-1.6","572036a1fd3a5200093c126b","641387e815ec15c3ccbb8ea1","6419d34d077b103bdab8cf11",NA,NA,NA,NA,NA,NA,NA,NA,NA,NA,NA,11931,NA,"{""CRAP_linear"":""tree""}",NA,NA,NA,NA
NA,NA,NA,NA,NA,"sketchpad",21,541657,"0.0-7.0-0.7","572036a1fd3a5200093c126b","641387e815ec15c3ccbb8ea1","6419d34d077b103bdab8cf11",NA,NA,NA,NA,NA,NA,NA,NA,NA,NA,NA,47835,NA,"button",NA,"572036a1fd3a5200093c126b_21_image.png",NA,NA
NA,NA,NA,NA,NA,"survey-html-form",22,548014,"0.0-7.0-1.7","572036a1fd3a5200093c126b","641387e815ec15c3ccbb8ea1","6419d34d077b103bdab8cf11",NA,NA,NA,NA,NA,NA,NA,NA,NA,NA,NA,6341,NA,"{""CRAP_linear"":""soap""}",NA,NA,NA,NA
NA,NA,NA,NA,NA,"sketchpad",23,581419,"0.0-7.0-0.8","572036a1fd3a5200093c126b","641387e815ec15c3ccbb8ea1","6419d34d077b103bdab8cf11",NA,NA,NA,NA,NA,NA,NA,NA,NA,NA,NA,33350,NA,"button",NA,"572036a1fd3a5200093c126b_23_image.png",NA,NA
NA,NA,NA,NA,NA,"survey-html-form",24,585896,"0.0-7.0-1.8","572036a1fd3a5200093c126b","641387e815ec15c3ccbb8ea1","6419d34d077b103bdab8cf11",NA,NA,NA,NA,NA,NA,NA,NA,NA,NA,NA,4460,NA,"{""CRAP_linear"":""bowl""}",NA,NA,NA,NA
NA,NA,NA,NA,NA,"sketchpad",25,605839,"0.0-7.0-0.9","572036a1fd3a5200093c126b","641387e815ec15c3ccbb8ea1","6419d34d077b103bdab8cf11",NA,NA,NA,NA,NA,NA,NA,NA,NA,NA,NA,19894,NA,"button",NA,"572036a1fd3a5200093c126b_25_image.png",NA,NA
NA,NA,NA,NA,NA,"survey-html-form",26,615604,"0.0-7.0-1.9","572036a1fd3a5200093c126b","641387e815ec15c3ccbb8ea1","6419d34d077b103bdab8cf11",NA,NA,NA,NA,NA,NA,NA,NA,NA,NA,NA,9748,NA,"{""CRAP_linear"":""candle""}",NA,NA,NA,NA
NA,NA,NA,NA,NA,"instructions",27,618556,"0.0-8.0","572036a1fd3a5200093c126b","641387e815ec15c3ccbb8ea1","6419d34d077b103bdab8cf11",NA,NA,NA,NA,NA,NA,NA,NA,NA,NA,NA,2951,NA,NA,"[{""page_index"":0,""viewing_time"":2951}]",NA,NA,NA
NA,NA,NA,NA,NA,"instructions",28,657506,"0.0-9.0","572036a1fd3a5200093c126b","641387e815ec15c3ccbb8ea1","6419d34d077b103bdab8cf11",NA,NA,NA,NA,NA,NA,NA,NA,NA,NA,NA,38950,NA,NA,"[{""page_index"":0,""viewing_time"":25071},{""page_index"":1,""viewing_time"":13878}]",NA,NA,NA
NA,NA,NA,NA,NA,"sketchpad",29,683508,"0.0-10.0-0.0","572036a1fd3a5200093c126b","641387e815ec15c3ccbb8ea1","6419d34d077b103bdab8cf11",NA,NA,NA,NA,NA,NA,NA,NA,NA,NA,NA,25956,NA,"button",NA,"572036a1fd3a5200093c126b_29_image.png",NA,NA
NA,NA,NA,NA,NA,"survey-html-form",30,688875,"0.0-10.0-1.0-0.0","572036a1fd3a5200093c126b","641387e815ec15c3ccbb8ea1","6419d34d077b103bdab8cf11",NA,NA,NA,NA,NA,NA,NA,NA,NA,NA,NA,5352,NA,"{""let_linear"":""mice""}",NA,NA,NA,NA
NA,NA,NA,NA,NA,"survey-html-form",31,691912,"0.0-10.0-1.0-0.1","572036a1fd3a5200093c126b","641387e815ec15c3ccbb8ea1","6419d34d077b103bdab8cf11",NA,NA,NA,NA,NA,NA,NA,NA,NA,NA,NA,3032,NA,"{""let_linear"":""mint""}",NA,NA,NA,NA
NA,NA,NA,NA,NA,"survey-html-form",32,693648,"0.0-10.0-1.0-0.2","572036a1fd3a5200093c126b","641387e815ec15c3ccbb8ea1","6419d34d077b103bdab8cf11",NA,NA,NA,NA,NA,NA,NA,NA,NA,NA,NA,1732,NA,"{""let_linear"":""mill""}",NA,NA,NA,NA
NA,NA,NA,NA,NA,"survey-html-form",33,695871,"0.0-10.0-1.0-0.3","572036a1fd3a5200093c126b","641387e815ec15c3ccbb8ea1","6419d34d077b103bdab8cf11",NA,NA,NA,NA,NA,NA,NA,NA,NA,NA,NA,2221,NA,"{""let_linear"":""minion""}",NA,NA,NA,NA
NA,NA,NA,NA,NA,"survey-html-form",34,713527,"0.0-10.0-1.0-0.4","572036a1fd3a5200093c126b","641387e815ec15c3ccbb8ea1","6419d34d077b103bdab8cf11",NA,NA,NA,NA,NA,NA,NA,NA,NA,NA,NA,NA,NA,NA,NA,NA,"timeout",NA
NA,NA,NA,NA,NA,"sketchpad",35,758936,"0.0-10.0-0.1","572036a1fd3a5200093c126b","641387e815ec15c3ccbb8ea1","6419d34d077b103bdab8cf11",NA,NA,NA,NA,NA,NA,NA,NA,NA,NA,NA,45359,NA,"button",NA,"572036a1fd3a5200093c126b_35_image.png",NA,NA
NA,NA,NA,NA,NA,"survey-html-form",36,763448,"0.0-10.0-1.1-0.5","572036a1fd3a5200093c126b","641387e815ec15c3ccbb8ea1","6419d34d077b103bdab8cf11",NA,NA,NA,NA,NA,NA,NA,NA,NA,NA,NA,4499,NA,"{""let_linear"":""lever""}",NA,NA,NA,NA
NA,NA,NA,NA,NA,"survey-html-form",37,764897,"0.0-10.0-1.1-0.6","572036a1fd3a5200093c126b","641387e815ec15c3ccbb8ea1","6419d34d077b103bdab8cf11",NA,NA,NA,NA,NA,NA,NA,NA,NA,NA,NA,1445,NA,"{""let_linear"":""leverage""}",NA,NA,NA,NA
NA,NA,NA,NA,NA,"survey-html-form",38,765840,"0.0-10.0-1.1-0.7","572036a1fd3a5200093c126b","641387e815ec15c3ccbb8ea1","6419d34d077b103bdab8cf11",NA,NA,NA,NA,NA,NA,NA,NA,NA,NA,NA,937,NA,"{""let_linear"":""lean""}",NA,NA,NA,NA
NA,NA,NA,NA,NA,"survey-html-form",39,767536,"0.0-10.0-1.1-0.8","572036a1fd3a5200093c126b","641387e815ec15c3ccbb8ea1","6419d34d077b103bdab8cf11",NA,NA,NA,NA,NA,NA,NA,NA,NA,NA,NA,1692,NA,"{""let_linear"":""less""}",NA,NA,NA,NA
NA,NA,NA,NA,NA,"survey-html-form",40,769688,"0.0-10.0-1.1-0.9","572036a1fd3a5200093c126b","641387e815ec15c3ccbb8ea1","6419d34d077b103bdab8cf11",NA,NA,NA,NA,NA,NA,NA,NA,NA,NA,NA,2148,NA,"{""let_linear"":""learn""}",NA,NA,NA,NA
NA,NA,NA,NA,NA,"survey-html-form",41,774857,"0.0-10.0-1.1-0.10","572036a1fd3a5200093c126b","641387e815ec15c3ccbb8ea1","6419d34d077b103bdab8cf11",NA,NA,NA,NA,NA,NA,NA,NA,NA,NA,NA,5164,NA,"{""let_linear"":""lemon""}",NA,NA,NA,NA
NA,NA,NA,NA,NA,"survey-html-form",42,779512,"0.0-10.0-1.1-0.11","572036a1fd3a5200093c126b","641387e815ec15c3ccbb8ea1","6419d34d077b103bdab8cf11",NA,NA,NA,NA,NA,NA,NA,NA,NA,NA,NA,4650,NA,"{""let_linear"":""levy""}",NA,NA,NA,NA
NA,NA,NA,NA,NA,"survey-html-form",43,782776,"0.0-10.0-1.1-0.12","572036a1fd3a5200093c126b","641387e815ec15c3ccbb8ea1","6419d34d077b103bdab8cf11",NA,NA,NA,NA,NA,NA,NA,NA,NA,NA,NA,3261,NA,"{""let_linear"":""lein""}",NA,NA,NA,NA
NA,NA,NA,NA,NA,"survey-html-form",44,784160,"0.0-10.0-1.1-0.13","572036a1fd3a5200093c126b","641387e815ec15c3ccbb8ea1","6419d34d077b103bdab8cf11",NA,NA,NA,NA,NA,NA,NA,NA,NA,NA,NA,1380,NA,"{""let_linear"":""lept""}",NA,NA,NA,NA
NA,NA,NA,NA,NA,"survey-html-form",45,788921,"0.0-10.0-1.1-0.14","572036a1fd3a5200093c126b","641387e815ec15c3ccbb8ea1","6419d34d077b103bdab8cf11",NA,NA,NA,NA,NA,NA,NA,NA,NA,NA,NA,4758,NA,"{""let_linear"":""lesser""}",NA,NA,NA,NA
NA,NA,NA,NA,NA,"survey-html-form",46,788945,"0.0-10.0-1.1-0.15","572036a1fd3a5200093c126b","641387e815ec15c3ccbb8ea1","6419d34d077b103bdab8cf11",NA,NA,NA,NA,NA,NA,NA,NA,NA,NA,NA,NA,NA,NA,NA,NA,"timeout",NA
NA,NA,NA,NA,NA,"sketchpad",47,816369,"0.0-10.0-0.2","572036a1fd3a5200093c126b","641387e815ec15c3ccbb8ea1","6419d34d077b103bdab8cf11",NA,NA,NA,NA,NA,NA,NA,NA,NA,NA,NA,27383,NA,"button",NA,"572036a1fd3a5200093c126b_47_image.png",NA,NA
NA,NA,NA,NA,NA,"survey-html-form",48,819832,"0.0-10.0-1.2-0.16","572036a1fd3a5200093c126b","641387e815ec15c3ccbb8ea1","6419d34d077b103bdab8cf11",NA,NA,NA,NA,NA,NA,NA,NA,NA,NA,NA,3449,NA,"{""let_linear"":""dart""}",NA,NA,NA,NA
NA,NA,NA,NA,NA,"survey-html-form",49,822328,"0.0-10.0-1.2-0.17","572036a1fd3a5200093c126b","641387e815ec15c3ccbb8ea1","6419d34d077b103bdab8cf11",NA,NA,NA,NA,NA,NA,NA,NA,NA,NA,NA,2491,NA,"{""let_linear"":""dare""}",NA,NA,NA,NA
NA,NA,NA,NA,NA,"survey-html-form",50,826720,"0.0-10.0-1.2-0.18","572036a1fd3a5200093c126b","641387e815ec15c3ccbb8ea1","6419d34d077b103bdab8cf11",NA,NA,NA,NA,NA,NA,NA,NA,NA,NA,NA,4388,NA,"{""let_linear"":""dame""}",NA,NA,NA,NA
NA,NA,NA,NA,NA,"survey-html-form",51,835992,"0.0-10.0-1.2-0.19","572036a1fd3a5200093c126b","641387e815ec15c3ccbb8ea1","6419d34d077b103bdab8cf11",NA,NA,NA,NA,NA,NA,NA,NA,NA,NA,NA,9267,NA,"{""let_linear"":""daring""}",NA,NA,NA,NA
NA,NA,NA,NA,NA,"survey-html-form",52,837792,"0.0-10.0-1.2-0.20","572036a1fd3a5200093c126b","641387e815ec15c3ccbb8ea1","6419d34d077b103bdab8cf11",NA,NA,NA,NA,NA,NA,NA,NA,NA,NA,NA,1796,NA,"{""let_linear"":""darting""}",NA,NA,NA,NA
NA,NA,NA,NA,NA,"survey-html-form",53,842567,"0.0-10.0-1.2-0.21","572036a1fd3a5200093c126b","641387e815ec15c3ccbb8ea1","6419d34d077b103bdab8cf11",NA,NA,NA,NA,NA,NA,NA,NA,NA,NA,NA,4772,NA,"{""let_linear"":""dawn""}",NA,NA,NA,NA
NA,NA,NA,NA,NA,"survey-html-form",54,845127,"0.0-10.0-1.2-0.22","572036a1fd3a5200093c126b","641387e815ec15c3ccbb8ea1","6419d34d077b103bdab8cf11",NA,NA,NA,NA,NA,NA,NA,NA,NA,NA,NA,2557,NA,"{""let_linear"":""dash""}",NA,NA,NA,NA
NA,NA,NA,NA,NA,"survey-html-form",55,846380,"0.0-10.0-1.2-0.23","572036a1fd3a5200093c126b","641387e815ec15c3ccbb8ea1","6419d34d077b103bdab8cf11",NA,NA,NA,NA,NA,NA,NA,NA,NA,NA,NA,NA,NA,NA,NA,NA,"timeout",NA
NA,NA,NA,NA,NA,"sketchpad",56,875588,"0.0-10.0-0.3","572036a1fd3a5200093c126b","641387e815ec15c3ccbb8ea1","6419d34d077b103bdab8cf11",NA,NA,NA,NA,NA,NA,NA,NA,NA,NA,NA,29160,NA,"button",NA,"572036a1fd3a5200093c126b_56_image.png",NA,NA
NA,NA,NA,NA,NA,"survey-html-form",57,878689,"0.0-10.0-1.3-0.24","572036a1fd3a5200093c126b","641387e815ec15c3ccbb8ea1","6419d34d077b103bdab8cf11",NA,NA,NA,NA,NA,NA,NA,NA,NA,NA,NA,3088,NA,"{""let_linear"":""absolute""}",NA,NA,NA,NA
NA,NA,NA,NA,NA,"survey-html-form",58,882191,"0.0-10.0-1.3-0.25","572036a1fd3a5200093c126b","641387e815ec15c3ccbb8ea1","6419d34d077b103bdab8cf11",NA,NA,NA,NA,NA,NA,NA,NA,NA,NA,NA,3498,NA,"{""let_linear"":""abbey""}",NA,NA,NA,NA
NA,NA,NA,NA,NA,"survey-html-form",59,883351,"0.0-10.0-1.3-0.26","572036a1fd3a5200093c126b","641387e815ec15c3ccbb8ea1","6419d34d077b103bdab8cf11",NA,NA,NA,NA,NA,NA,NA,NA,NA,NA,NA,1155,NA,"{""let_linear"":""about""}",NA,NA,NA,NA
NA,NA,NA,NA,NA,"survey-html-form",60,890872,"0.0-10.0-1.3-0.27","572036a1fd3a5200093c126b","641387e815ec15c3ccbb8ea1","6419d34d077b103bdab8cf11",NA,NA,NA,NA,NA,NA,NA,NA,NA,NA,NA,7516,NA,"{""let_linear"":""ablution""}",NA,NA,NA,NA
NA,NA,NA,NA,NA,"survey-html-form",61,896280,"0.0-10.0-1.3-0.28","572036a1fd3a5200093c126b","641387e815ec15c3ccbb8ea1","6419d34d077b103bdab8cf11",NA,NA,NA,NA,NA,NA,NA,NA,NA,NA,NA,5404,NA,"{""let_linear"":""able""}",NA,NA,NA,NA
NA,NA,NA,NA,NA,"survey-html-form",62,905609,"0.0-10.0-1.3-0.29","572036a1fd3a5200093c126b","641387e815ec15c3ccbb8ea1","6419d34d077b103bdab8cf11",NA,NA,NA,NA,NA,NA,NA,NA,NA,NA,NA,NA,NA,NA,NA,NA,"timeout",NA
NA,NA,NA,NA,NA,"sketchpad",63,932131,"0.0-10.0-0.4","572036a1fd3a5200093c126b","641387e815ec15c3ccbb8ea1","6419d34d077b103bdab8cf11",NA,NA,NA,NA,NA,NA,NA,NA,NA,NA,NA,26478,NA,"button",NA,"572036a1fd3a5200093c126b_63_image.png",NA,NA
NA,NA,NA,NA,NA,"survey-html-form",64,934473,"0.0-10.0-1.4-0.30","572036a1fd3a5200093c126b","641387e815ec15c3ccbb8ea1","6419d34d077b103bdab8cf11",NA,NA,NA,NA,NA,NA,NA,NA,NA,NA,NA,2330,NA,"{""let_linear"":""start""}",NA,NA,NA,NA
NA,NA,NA,NA,NA,"survey-html-form",65,935752,"0.0-10.0-1.4-0.31","572036a1fd3a5200093c126b","641387e815ec15c3ccbb8ea1","6419d34d077b103bdab8cf11",NA,NA,NA,NA,NA,NA,NA,NA,NA,NA,NA,1276,NA,"{""let_linear"":""stain""}",NA,NA,NA,NA
NA,NA,NA,NA,NA,"survey-html-form",66,937705,"0.0-10.0-1.4-0.32","572036a1fd3a5200093c126b","641387e815ec15c3ccbb8ea1","6419d34d077b103bdab8cf11",NA,NA,NA,NA,NA,NA,NA,NA,NA,NA,NA,1948,NA,"{""let_linear"":""stop""}",NA,NA,NA,NA
NA,NA,NA,NA,NA,"survey-html-form",67,939825,"0.0-10.0-1.4-0.33","572036a1fd3a5200093c126b","641387e815ec15c3ccbb8ea1","6419d34d077b103bdab8cf11",NA,NA,NA,NA,NA,NA,NA,NA,NA,NA,NA,2115,NA,"{""let_linear"":""strip""}",NA,NA,NA,NA
NA,NA,NA,NA,NA,"survey-html-form",68,942016,"0.0-10.0-1.4-0.34","572036a1fd3a5200093c126b","641387e815ec15c3ccbb8ea1","6419d34d077b103bdab8cf11",NA,NA,NA,NA,NA,NA,NA,NA,NA,NA,NA,2188,NA,"{""let_linear"":""strap""}",NA,NA,NA,NA
NA,NA,NA,NA,NA,"survey-html-form",69,944912,"0.0-10.0-1.4-0.35","572036a1fd3a5200093c126b","641387e815ec15c3ccbb8ea1","6419d34d077b103bdab8cf11",NA,NA,NA,NA,NA,NA,NA,NA,NA,NA,NA,2891,NA,"{""let_linear"":""stoll""}",NA,NA,NA,NA
NA,NA,NA,NA,NA,"survey-html-form",70,945921,"0.0-10.0-1.4-0.36","572036a1fd3a5200093c126b","641387e815ec15c3ccbb8ea1","6419d34d077b103bdab8cf11",NA,NA,NA,NA,NA,NA,NA,NA,NA,NA,NA,1004,NA,"{""let_linear"":""stick""}",NA,NA,NA,NA
NA,NA,NA,NA,NA,"survey-html-form",71,948753,"0.0-10.0-1.4-0.37","572036a1fd3a5200093c126b","641387e815ec15c3ccbb8ea1","6419d34d077b103bdab8cf11",NA,NA,NA,NA,NA,NA,NA,NA,NA,NA,NA,2829,NA,"{""let_linear"":""still""}",NA,NA,NA,NA
NA,NA,NA,NA,NA,"survey-html-form",72,950920,"0.0-10.0-1.4-0.38","572036a1fd3a5200093c126b","641387e815ec15c3ccbb8ea1","6419d34d077b103bdab8cf11",NA,NA,NA,NA,NA,NA,NA,NA,NA,NA,NA,2164,NA,"{""let_linear"":""stingy""}",NA,NA,NA,NA
NA,NA,NA,NA,NA,"survey-html-form",73,953049,"0.0-10.0-1.4-0.39","572036a1fd3a5200093c126b","641387e815ec15c3ccbb8ea1","6419d34d077b103bdab8cf11",NA,NA,NA,NA,NA,NA,NA,NA,NA,NA,NA,2124,NA,"{""let_linear"":""sting""}",NA,NA,NA,NA
NA,NA,NA,NA,NA,"survey-html-form",74,956656,"0.0-10.0-1.4-0.40","572036a1fd3a5200093c126b","641387e815ec15c3ccbb8ea1","6419d34d077b103bdab8cf11",NA,NA,NA,NA,NA,NA,NA,NA,NA,NA,NA,3602,NA,"{""let_linear"":""stent""}",NA,NA,NA,NA
NA,NA,NA,NA,NA,"survey-html-form",75,962149,"0.0-10.0-1.4-0.41","572036a1fd3a5200093c126b","641387e815ec15c3ccbb8ea1","6419d34d077b103bdab8cf11",NA,NA,NA,NA,NA,NA,NA,NA,NA,NA,NA,NA,NA,NA,NA,NA,"timeout",NA
NA,NA,NA,NA,NA,"sketchpad",76,989595,"0.0-10.0-0.5","572036a1fd3a5200093c126b","641387e815ec15c3ccbb8ea1","6419d34d077b103bdab8cf11",NA,NA,NA,NA,NA,NA,NA,NA,NA,NA,NA,27396,NA,"button",NA,"572036a1fd3a5200093c126b_76_image.png",NA,NA
NA,NA,NA,NA,NA,"survey-html-form",77,993785,"0.0-10.0-1.5-0.42","572036a1fd3a5200093c126b","641387e815ec15c3ccbb8ea1","6419d34d077b103bdab8cf11",NA,NA,NA,NA,NA,NA,NA,NA,NA,NA,NA,4172,NA,"{""let_linear"":""great""}",NA,NA,NA,NA
NA,NA,NA,NA,NA,"survey-html-form",78,994827,"0.0-10.0-1.5-0.43","572036a1fd3a5200093c126b","641387e815ec15c3ccbb8ea1","6419d34d077b103bdab8cf11",NA,NA,NA,NA,NA,NA,NA,NA,NA,NA,NA,1036,NA,"{""let_linear"":""grape""}",NA,NA,NA,NA
NA,NA,NA,NA,NA,"survey-html-form",79,995946,"0.0-10.0-1.5-0.44","572036a1fd3a5200093c126b","641387e815ec15c3ccbb8ea1","6419d34d077b103bdab8cf11",NA,NA,NA,NA,NA,NA,NA,NA,NA,NA,NA,1115,NA,"{""let_linear"":""grain""}",NA,NA,NA,NA
NA,NA,NA,NA,NA,"survey-html-form",80,998618,"0.0-10.0-1.5-0.45","572036a1fd3a5200093c126b","641387e815ec15c3ccbb8ea1","6419d34d077b103bdab8cf11",NA,NA,NA,NA,NA,NA,NA,NA,NA,NA,NA,2668,NA,"{""let_linear"":""granular""}",NA,NA,NA,NA
NA,NA,NA,NA,NA,"survey-html-form",81,1001977,"0.0-10.0-1.5-0.46","572036a1fd3a5200093c126b","641387e815ec15c3ccbb8ea1","6419d34d077b103bdab8cf11",NA,NA,NA,NA,NA,NA,NA,NA,NA,NA,NA,3355,NA,"{""let_linear"":""gray""}",NA,NA,NA,NA
NA,NA,NA,NA,NA,"survey-html-form",82,1004874,"0.0-10.0-1.5-0.47","572036a1fd3a5200093c126b","641387e815ec15c3ccbb8ea1","6419d34d077b103bdab8cf11",NA,NA,NA,NA,NA,NA,NA,NA,NA,NA,NA,2893,NA,"{""let_linear"":""grip""}",NA,NA,NA,NA
NA,NA,NA,NA,NA,"survey-html-form",83,1011162,"0.0-10.0-1.5-0.48","572036a1fd3a5200093c126b","641387e815ec15c3ccbb8ea1","6419d34d077b103bdab8cf11",NA,NA,NA,NA,NA,NA,NA,NA,NA,NA,NA,6282,NA,"{""let_linear"":""grin""}",NA,NA,NA,NA
NA,NA,NA,NA,NA,"survey-html-form",84,1014507,"0.0-10.0-1.5-0.49","572036a1fd3a5200093c126b","641387e815ec15c3ccbb8ea1","6419d34d077b103bdab8cf11",NA,NA,NA,NA,NA,NA,NA,NA,NA,NA,NA,3342,NA,"{""let_linear"":""grunge""}",NA,NA,NA,NA
NA,NA,NA,NA,NA,"survey-html-form",85,1017579,"0.0-10.0-1.5-0.50","572036a1fd3a5200093c126b","641387e815ec15c3ccbb8ea1","6419d34d077b103bdab8cf11",NA,NA,NA,NA,NA,NA,NA,NA,NA,NA,NA,3068,NA,"{""let_linear"":""grumpy""}",NA,NA,NA,NA
NA,NA,NA,NA,NA,"survey-html-form",86,1019610,"0.0-10.0-1.5-0.51","572036a1fd3a5200093c126b","641387e815ec15c3ccbb8ea1","6419d34d077b103bdab8cf11",NA,NA,NA,NA,NA,NA,NA,NA,NA,NA,NA,NA,NA,NA,NA,NA,"timeout",NA
NA,NA,NA,NA,NA,"sketchpad",87,1050996,"0.0-10.0-0.6","572036a1fd3a5200093c126b","641387e815ec15c3ccbb8ea1","6419d34d077b103bdab8cf11",NA,NA,NA,NA,NA,NA,NA,NA,NA,NA,NA,31333,NA,"button",NA,"572036a1fd3a5200093c126b_87_image.png",NA,NA
NA,NA,NA,NA,NA,"survey-html-form",88,1057363,"0.0-10.0-1.6-0.52","572036a1fd3a5200093c126b","641387e815ec15c3ccbb8ea1","6419d34d077b103bdab8cf11",NA,NA,NA,NA,NA,NA,NA,NA,NA,NA,NA,6353,NA,"{""let_linear"":""each""}",NA,NA,NA,NA
NA,NA,NA,NA,NA,"survey-html-form",89,1058395,"0.0-10.0-1.6-0.53","572036a1fd3a5200093c126b","641387e815ec15c3ccbb8ea1","6419d34d077b103bdab8cf11",NA,NA,NA,NA,NA,NA,NA,NA,NA,NA,NA,1028,NA,"{""let_linear"":""earn""}",NA,NA,NA,NA
NA,NA,NA,NA,NA,"survey-html-form",90,1061939,"0.0-10.0-1.6-0.54","572036a1fd3a5200093c126b","641387e815ec15c3ccbb8ea1","6419d34d077b103bdab8cf11",NA,NA,NA,NA,NA,NA,NA,NA,NA,NA,NA,3539,NA,"{""let_linear"":""earth""}",NA,NA,NA,NA
NA,NA,NA,NA,NA,"survey-html-form",91,1064140,"0.0-10.0-1.6-0.55","572036a1fd3a5200093c126b","641387e815ec15c3ccbb8ea1","6419d34d077b103bdab8cf11",NA,NA,NA,NA,NA,NA,NA,NA,NA,NA,NA,2197,NA,"{""let_linear"":""earthy""}",NA,NA,NA,NA
NA,NA,NA,NA,NA,"survey-html-form",92,1073987,"0.0-10.0-1.6-0.56","572036a1fd3a5200093c126b","641387e815ec15c3ccbb8ea1","6419d34d077b103bdab8cf11",NA,NA,NA,NA,NA,NA,NA,NA,NA,NA,NA,9843,NA,"{""let_linear"":""easy""}",NA,NA,NA,NA
NA,NA,NA,NA,NA,"survey-html-form",93,1081005,"0.0-10.0-1.6-0.57","572036a1fd3a5200093c126b","641387e815ec15c3ccbb8ea1","6419d34d077b103bdab8cf11",NA,NA,NA,NA,NA,NA,NA,NA,NA,NA,NA,NA,NA,NA,NA,NA,"timeout",NA
NA,NA,NA,NA,NA,"sketchpad",94,1111627,"0.0-10.0-0.7","572036a1fd3a5200093c126b","641387e815ec15c3ccbb8ea1","6419d34d077b103bdab8cf11",NA,NA,NA,NA,NA,NA,NA,NA,NA,NA,NA,30574,NA,"button",NA,"572036a1fd3a5200093c126b_94_image.png",NA,NA
NA,NA,NA,NA,NA,"survey-html-form",95,1115909,"0.0-10.0-1.7-0.58","572036a1fd3a5200093c126b","641387e815ec15c3ccbb8ea1","6419d34d077b103bdab8cf11",NA,NA,NA,NA,NA,NA,NA,NA,NA,NA,NA,4265,NA,"{""let_linear"":""xoo""}",NA,NA,NA,NA
NA,NA,NA,NA,NA,"survey-html-form",96,1117316,"0.0-10.0-1.7-0.59","572036a1fd3a5200093c126b","641387e815ec15c3ccbb8ea1","6419d34d077b103bdab8cf11",NA,NA,NA,NA,NA,NA,NA,NA,NA,NA,NA,1404,NA,"{""let_linear"":""zoo""}",NA,NA,NA,NA
NA,NA,NA,NA,NA,"survey-html-form",97,1125501,"0.0-10.0-1.7-0.60","572036a1fd3a5200093c126b","641387e815ec15c3ccbb8ea1","6419d34d077b103bdab8cf11",NA,NA,NA,NA,NA,NA,NA,NA,NA,NA,NA,8180,NA,"{""let_linear"":""zone""}",NA,NA,NA,NA
NA,NA,NA,NA,NA,"survey-html-form",98,1141638,"0.0-10.0-1.7-0.61","572036a1fd3a5200093c126b","641387e815ec15c3ccbb8ea1","6419d34d077b103bdab8cf11",NA,NA,NA,NA,NA,NA,NA,NA,NA,NA,NA,NA,NA,NA,NA,NA,"timeout",NA
NA,NA,NA,NA,NA,"sketchpad",99,1169904,"0.0-10.0-0.8","572036a1fd3a5200093c126b","641387e815ec15c3ccbb8ea1","6419d34d077b103bdab8cf11",NA,NA,NA,NA,NA,NA,NA,NA,NA,NA,NA,28217,NA,"button",NA,"572036a1fd3a5200093c126b_99_image.png",NA,NA
NA,NA,NA,NA,NA,"survey-html-form",100,1172983,"0.0-10.0-1.8-0.62","572036a1fd3a5200093c126b","641387e815ec15c3ccbb8ea1","6419d34d077b103bdab8cf11",NA,NA,NA,NA,NA,NA,NA,NA,NA,NA,NA,3066,NA,"{""let_linear"":""prime""}",NA,NA,NA,NA
NA,NA,NA,NA,NA,"survey-html-form",101,1174599,"0.0-10.0-1.8-0.63","572036a1fd3a5200093c126b","641387e815ec15c3ccbb8ea1","6419d34d077b103bdab8cf11",NA,NA,NA,NA,NA,NA,NA,NA,NA,NA,NA,1613,NA,"{""let_linear"":""prize""}",NA,NA,NA,NA
NA,NA,NA,NA,NA,"survey-html-form",102,1176151,"0.0-10.0-1.8-0.64","572036a1fd3a5200093c126b","641387e815ec15c3ccbb8ea1","6419d34d077b103bdab8cf11",NA,NA,NA,NA,NA,NA,NA,NA,NA,NA,NA,1548,NA,"{""let_linear"":""praise""}",NA,NA,NA,NA
NA,NA,NA,NA,NA,"survey-html-form",103,1178487,"0.0-10.0-1.8-0.65","572036a1fd3a5200093c126b","641387e815ec15c3ccbb8ea1","6419d34d077b103bdab8cf11",NA,NA,NA,NA,NA,NA,NA,NA,NA,NA,NA,2333,NA,"{""let_linear"":""pray""}",NA,NA,NA,NA
NA,NA,NA,NA,NA,"survey-html-form",104,1181655,"0.0-10.0-1.8-0.66","572036a1fd3a5200093c126b","641387e815ec15c3ccbb8ea1","6419d34d077b103bdab8cf11",NA,NA,NA,NA,NA,NA,NA,NA,NA,NA,NA,3164,NA,"{""let_linear"":""proud""}",NA,NA,NA,NA
NA,NA,NA,NA,NA,"survey-html-form",105,1184855,"0.0-10.0-1.8-0.67","572036a1fd3a5200093c126b","641387e815ec15c3ccbb8ea1","6419d34d077b103bdab8cf11",NA,NA,NA,NA,NA,NA,NA,NA,NA,NA,NA,3195,NA,"{""let_linear"":""plot""}",NA,NA,NA,NA
NA,NA,NA,NA,NA,"survey-html-form",106,1189463,"0.0-10.0-1.8-0.68","572036a1fd3a5200093c126b","641387e815ec15c3ccbb8ea1","6419d34d077b103bdab8cf11",NA,NA,NA,NA,NA,NA,NA,NA,NA,NA,NA,4604,NA,"{""let_linear"":""prong""}",NA,NA,NA,NA
NA,NA,NA,NA,NA,"survey-html-form",107,1194759,"0.0-10.0-1.8-0.69","572036a1fd3a5200093c126b","641387e815ec15c3ccbb8ea1","6419d34d077b103bdab8cf11",NA,NA,NA,NA,NA,NA,NA,NA,NA,NA,NA,5292,NA,"{""let_linear"":""preen""}",NA,NA,NA,NA
NA,NA,NA,NA,NA,"survey-html-form",108,1199311,"0.0-10.0-1.8-0.70","572036a1fd3a5200093c126b","641387e815ec15c3ccbb8ea1","6419d34d077b103bdab8cf11",NA,NA,NA,NA,NA,NA,NA,NA,NA,NA,NA,4548,NA,"{""let_linear"":""prize""}",NA,NA,NA,NA
NA,NA,NA,NA,NA,"survey-html-form",109,1199912,"0.0-10.0-1.8-0.71","572036a1fd3a5200093c126b","641387e815ec15c3ccbb8ea1","6419d34d077b103bdab8cf11",NA,NA,NA,NA,NA,NA,NA,NA,NA,NA,NA,NA,NA,NA,NA,NA,"timeout",NA
NA,NA,NA,NA,NA,"sketchpad",110,1213128,"0.0-10.0-0.9","572036a1fd3a5200093c126b","641387e815ec15c3ccbb8ea1","6419d34d077b103bdab8cf11",NA,NA,NA,NA,NA,NA,NA,NA,NA,NA,NA,13169,NA,"button",NA,"572036a1fd3a5200093c126b_110_image.png",NA,NA
NA,NA,NA,NA,NA,"survey-html-form",111,1217312,"0.0-10.0-1.9-0.72","572036a1fd3a5200093c126b","641387e815ec15c3ccbb8ea1","6419d34d077b103bdab8cf11",NA,NA,NA,NA,NA,NA,NA,NA,NA,NA,NA,4170,NA,"{""let_linear"":""glad""}",NA,NA,NA,NA
NA,NA,NA,NA,NA,"survey-html-form",112,1221616,"0.0-10.0-1.9-0.73","572036a1fd3a5200093c126b","641387e815ec15c3ccbb8ea1","6419d34d077b103bdab8cf11",NA,NA,NA,NA,NA,NA,NA,NA,NA,NA,NA,4301,NA,"{""let_linear"":""glimmer""}",NA,NA,NA,NA
NA,NA,NA,NA,NA,"survey-html-form",113,1228033,"0.0-10.0-1.9-0.74","572036a1fd3a5200093c126b","641387e815ec15c3ccbb8ea1","6419d34d077b103bdab8cf11",NA,NA,NA,NA,NA,NA,NA,NA,NA,NA,NA,6413,NA,"{""let_linear"":""glob""}",NA,NA,NA,NA
NA,NA,NA,NA,NA,"survey-html-form",114,1233738,"0.0-10.0-1.9-0.75","572036a1fd3a5200093c126b","641387e815ec15c3ccbb8ea1","6419d34d077b103bdab8cf11",NA,NA,NA,NA,NA,NA,NA,NA,NA,NA,NA,5701,NA,"{""let_linear"":""glint""}",NA,NA,NA,NA
NA,NA,NA,NA,NA,"survey-html-form",115,1237936,"0.0-10.0-1.9-0.76","572036a1fd3a5200093c126b","641387e815ec15c3ccbb8ea1","6419d34d077b103bdab8cf11",NA,NA,NA,NA,NA,NA,NA,NA,NA,NA,NA,4195,NA,"{""let_linear"":""glut""}",NA,NA,NA,NA
NA,NA,NA,NA,NA,"survey-html-form",116,1243137,"0.0-10.0-1.9-0.77","572036a1fd3a5200093c126b","641387e815ec15c3ccbb8ea1","6419d34d077b103bdab8cf11",NA,NA,NA,NA,NA,NA,NA,NA,NA,NA,NA,NA,NA,NA,NA,NA,"timeout",NA
NA,NA,NA,NA,NA,"instructions",117,1375163,"0.0-11.0","572036a1fd3a5200093c126b","641387e815ec15c3ccbb8ea1","6419d34d077b103bdab8cf11",NA,NA,NA,NA,NA,NA,NA,NA,NA,NA,NA,132022,NA,NA,"[{""page_index"":0,""viewing_time"":132022}]",NA,NA,NA
NA,NA,NA,NA,NA,"survey",118,1470158,"0.0-12.0","572036a1fd3a5200093c126b","641387e815ec15c3ccbb8ea1","6419d34d077b103bdab8cf11",NA,NA,NA,NA,NA,NA,NA,NA,NA,NA,NA,94856,NA,"{""Author"":[""Toni Morrison"",""Salmon Rushdie"",""Kurt Vonnegut"",""Margaret Mitchell"",""Robert Ludlum"",""F. Scott Fitzgerald"",""Willa Cather"",""James Patterson"",""George Orwell"",""Isaac Asimov"",""Judith Krantz"",""Margaret Atwood"",""James Joyce"",""Alice Walker"",""E.B. White"",""Samuel Beckett"",""William Faulkner"",""Virginia Woolf"",""Ray Bradbury"",""J.R.R. Tolkien"",""Ayn Rand"",""Sue Grafton"",""Sidney Sheldon"",""Jackie Collins"",""Thomas Wolfe"",""James Michener"",""John Grisham"",""Stephen King"",""Tom Clancy"",""Ralph Ellison"",""Judith Stanley"",""Ernest Hemingway"",""Herman Wouk"",""Harper Lee"",""T.S. Elliot"",""Jack London"",""J.D. Salinger"",""Raymond Chandler"",""Danielle Steel"",""Maya Angelou"",""Saul Bellow"",""Gabriel Garcia Marquez""]}",NA,NA,NA,"[]"
NA,NA,NA,NA,NA,"survey",119,1499864,"0.0-13.0","572036a1fd3a5200093c126b","641387e815ec15c3ccbb8ea1","6419d34d077b103bdab8cf11",NA,NA,NA,NA,NA,NA,NA,NA,NA,NA,NA,29645,NA,"{""Langauge"":""Yes"",""2ndLanguage"":"""",""2nd_lg_fluency"":null,""SecondLanguage"":"""",""3rd_lg_fluency"":null,""age"":""45"",""Highest_degree"":""Bachelors degree in college (4-year)"",""Handedness"":""Right"",""Race"":[""White""],""sexual_orientation"":""straight (heterosexual)"",""gender"":""woman""}",NA,NA,NA,"[]"
NA,NA,NA,NA,NA,"survey",120,1502117,"0.0-14.0","572036a1fd3a5200093c126b","641387e815ec15c3ccbb8ea1","6419d34d077b103bdab8cf11",NA,NA,NA,NA,NA,NA,NA,NA,NA,NA,NA,2245,NA,"{""final_comment"":""""}",NA,NA,NA,"[]"
NA,NA,NA,NA,NA,"html-keyboard-response",121,1505780,"0.0-15.0","572036a1fd3a5200093c126b","641387e815ec15c3ccbb8ea1","6419d34d077b103bdab8cf11",NA,NA,NA,NA,NA,NA,NA,NA,NA,NA,NA,3661,"Please press Enter for your results to be saved. Do not close this window; you will be redirected to the Prolific website automatically to get your credit after we received your results. It may take one minute, or longer depending on your internet speed! <p><b>Thank you for your participation :) </b>","enter",NA,NA,NA,NA
TRUE,FALSE,"[]","[]","[]","preload",0,389,"0.0-0.0","5733464fbc6923000fcd2de1","641387e815ec15c3ccbb8ea1","6419ce7e7f821d71d4801a99",NA,NA,NA,NA,NA,NA,NA,NA,NA,NA,NA,NA,NA,NA,NA,NA,NA,NA
TRUE,NA,NA,NA,NA,"fullscreen",1,11899,"0.0-1.0","5733464fbc6923000fcd2de1","641387e815ec15c3ccbb8ea1","6419ce7e7f821d71d4801a99",NA,NA,NA,NA,NA,NA,NA,NA,NA,NA,NA,NA,NA,NA,NA,NA,NA,NA
NA,NA,NA,NA,NA,"browser-check",2,12892,"0.0-2.0","5733464fbc6923000fcd2de1","641387e815ec15c3ccbb8ea1","6419ce7e7f821d71d4801a99",2560,1440,TRUE,"chrome","111.0.0",FALSE,"Mac OS",TRUE,60.61,TRUE,TRUE,NA,NA,NA,NA,NA,NA,NA
NA,NA,NA,NA,NA,"html-keyboard-response",3,14479,"0.0-3.0","5733464fbc6923000fcd2de1","641387e815ec15c3ccbb8ea1","6419ce7e7f821d71d4801a99",NA,NA,NA,NA,NA,NA,NA,NA,NA,NA,NA,1586,"Welcome to the experiment! Press any key to start.",NA,NA,NA,NA,NA
NA,NA,NA,NA,NA,"instructions",4,18492,"0.0-4.0","5733464fbc6923000fcd2de1","641387e815ec15c3ccbb8ea1","6419ce7e7f821d71d4801a99",NA,NA,NA,NA,NA,NA,NA,NA,NA,NA,NA,4012,NA,NA,"[{""page_index"":0,""viewing_time"":4012}]",NA,NA,NA
NA,NA,NA,NA,NA,"instructions",5,78725,"0.0-5.0","5733464fbc6923000fcd2de1","641387e815ec15c3ccbb8ea1","6419ce7e7f821d71d4801a99",NA,NA,NA,NA,NA,NA,NA,NA,NA,NA,NA,60202,NA,NA,"[{""page_index"":0,""viewing_time"":17438},{""page_index"":1,""viewing_time"":42764}]",NA,NA,NA
NA,NA,NA,NA,NA,"video-keyboard-response",6,158235,"0.0-6.0","5733464fbc6923000fcd2de1","641387e815ec15c3ccbb8ea1","6419ce7e7f821d71d4801a99",NA,NA,NA,NA,NA,NA,NA,NA,NA,NA,NA,2293,"[""Diverse_final.mp4""]","enter",NA,NA,NA,NA
NA,NA,NA,NA,NA,"sketchpad",7,229014,"0.0-7.0-0.0","5733464fbc6923000fcd2de1","641387e815ec15c3ccbb8ea1","6419ce7e7f821d71d4801a99",NA,NA,NA,NA,NA,NA,NA,NA,NA,NA,NA,70716,NA,"button",NA,"5733464fbc6923000fcd2de1_7_image.png",NA,NA
NA,NA,NA,NA,NA,"survey-html-form",8,235322,"0.0-7.0-1.0","5733464fbc6923000fcd2de1","641387e815ec15c3ccbb8ea1","6419ce7e7f821d71d4801a99",NA,NA,NA,NA,NA,NA,NA,NA,NA,NA,NA,6298,NA,"{""CRAP_diverse"":""soap""}",NA,NA,NA,NA
NA,NA,NA,NA,NA,"sketchpad",9,286487,"0.0-7.0-0.1","5733464fbc6923000fcd2de1","641387e815ec15c3ccbb8ea1","6419ce7e7f821d71d4801a99",NA,NA,NA,NA,NA,NA,NA,NA,NA,NA,NA,51136,NA,"button",NA,"5733464fbc6923000fcd2de1_9_image.png",NA,NA
NA,NA,NA,NA,NA,"survey-html-form",10,299358,"0.0-7.0-1.1","5733464fbc6923000fcd2de1","641387e815ec15c3ccbb8ea1","6419ce7e7f821d71d4801a99",NA,NA,NA,NA,NA,NA,NA,NA,NA,NA,NA,12864,NA,"{""CRAP_diverse"":""horn""}",NA,NA,NA,NA
NA,NA,NA,NA,NA,"sketchpad",11,340420,"0.0-7.0-0.2","5733464fbc6923000fcd2de1","641387e815ec15c3ccbb8ea1","6419ce7e7f821d71d4801a99",NA,NA,NA,NA,NA,NA,NA,NA,NA,NA,NA,41035,NA,"button",NA,"5733464fbc6923000fcd2de1_11_image.png",NA,NA
NA,NA,NA,NA,NA,"survey-html-form",12,345272,"0.0-7.0-1.2","5733464fbc6923000fcd2de1","641387e815ec15c3ccbb8ea1","6419ce7e7f821d71d4801a99",NA,NA,NA,NA,NA,NA,NA,NA,NA,NA,NA,4844,NA,"{""CRAP_diverse"":""bowl""}",NA,NA,NA,NA
NA,NA,NA,NA,NA,"sketchpad",13,398873,"0.0-7.0-0.3","5733464fbc6923000fcd2de1","641387e815ec15c3ccbb8ea1","6419ce7e7f821d71d4801a99",NA,NA,NA,NA,NA,NA,NA,NA,NA,NA,NA,53574,NA,"button",NA,"5733464fbc6923000fcd2de1_13_image.png",NA,NA
NA,NA,NA,NA,NA,"survey-html-form",14,404231,"0.0-7.0-1.3","5733464fbc6923000fcd2de1","641387e815ec15c3ccbb8ea1","6419ce7e7f821d71d4801a99",NA,NA,NA,NA,NA,NA,NA,NA,NA,NA,NA,5349,NA,"{""CRAP_diverse"":""candle""}",NA,NA,NA,NA
NA,NA,NA,NA,NA,"sketchpad",15,483002,"0.0-7.0-0.4","5733464fbc6923000fcd2de1","641387e815ec15c3ccbb8ea1","6419ce7e7f821d71d4801a99",NA,NA,NA,NA,NA,NA,NA,NA,NA,NA,NA,78742,NA,"button",NA,"5733464fbc6923000fcd2de1_15_image.png",NA,NA
NA,NA,NA,NA,NA,"survey-html-form",16,513010,"0.0-7.0-1.4","5733464fbc6923000fcd2de1","641387e815ec15c3ccbb8ea1","6419ce7e7f821d71d4801a99",NA,NA,NA,NA,NA,NA,NA,NA,NA,NA,NA,NA,NA,NA,NA,NA,"timeout",NA
NA,NA,NA,NA,NA,"sketchpad",17,551039,"0.0-7.0-0.5","5733464fbc6923000fcd2de1","641387e815ec15c3ccbb8ea1","6419ce7e7f821d71d4801a99",NA,NA,NA,NA,NA,NA,NA,NA,NA,NA,NA,38001,NA,"button",NA,"5733464fbc6923000fcd2de1_17_image.png",NA,NA
NA,NA,NA,NA,NA,"survey-html-form",18,581055,"0.0-7.0-1.5","5733464fbc6923000fcd2de1","641387e815ec15c3ccbb8ea1","6419ce7e7f821d71d4801a99",NA,NA,NA,NA,NA,NA,NA,NA,NA,NA,NA,NA,NA,NA,NA,NA,"timeout",NA
NA,NA,NA,NA,NA,"sketchpad",19,621793,"0.0-7.0-0.6","5733464fbc6923000fcd2de1","641387e815ec15c3ccbb8ea1","6419ce7e7f821d71d4801a99",NA,NA,NA,NA,NA,NA,NA,NA,NA,NA,NA,40710,NA,"button",NA,"5733464fbc6923000fcd2de1_19_image.png",NA,NA
NA,NA,NA,NA,NA,"survey-html-form",20,626753,"0.0-7.0-1.6","5733464fbc6923000fcd2de1","641387e815ec15c3ccbb8ea1","6419ce7e7f821d71d4801a99",NA,NA,NA,NA,NA,NA,NA,NA,NA,NA,NA,4953,NA,"{""CRAP_diverse"":""trap""}",NA,NA,NA,NA
NA,NA,NA,NA,NA,"sketchpad",21,665142,"0.0-7.0-0.7","5733464fbc6923000fcd2de1","641387e815ec15c3ccbb8ea1","6419ce7e7f821d71d4801a99",NA,NA,NA,NA,NA,NA,NA,NA,NA,NA,NA,38362,NA,"button",NA,"5733464fbc6923000fcd2de1_21_image.png",NA,NA
NA,NA,NA,NA,NA,"survey-html-form",22,668566,"0.0-7.0-1.7","5733464fbc6923000fcd2de1","641387e815ec15c3ccbb8ea1","6419ce7e7f821d71d4801a99",NA,NA,NA,NA,NA,NA,NA,NA,NA,NA,NA,3417,NA,"{""CRAP_diverse"":""boat""}",NA,NA,NA,NA
NA,NA,NA,NA,NA,"sketchpad",23,704073,"0.0-7.0-0.8","5733464fbc6923000fcd2de1","641387e815ec15c3ccbb8ea1","6419ce7e7f821d71d4801a99",NA,NA,NA,NA,NA,NA,NA,NA,NA,NA,NA,35478,NA,"button",NA,"5733464fbc6923000fcd2de1_23_image.png",NA,NA
NA,NA,NA,NA,NA,"survey-html-form",24,709681,"0.0-7.0-1.8","5733464fbc6923000fcd2de1","641387e815ec15c3ccbb8ea1","6419ce7e7f821d71d4801a99",NA,NA,NA,NA,NA,NA,NA,NA,NA,NA,NA,5600,NA,"{""CRAP_diverse"":""tree""}",NA,NA,NA,NA
NA,NA,NA,NA,NA,"sketchpad",25,759072,"0.0-7.0-0.9","5733464fbc6923000fcd2de1","641387e815ec15c3ccbb8ea1","6419ce7e7f821d71d4801a99",NA,NA,NA,NA,NA,NA,NA,NA,NA,NA,NA,49364,NA,"button",NA,"5733464fbc6923000fcd2de1_25_image.png",NA,NA
NA,NA,NA,NA,NA,"survey-html-form",26,762531,"0.0-7.0-1.9","5733464fbc6923000fcd2de1","641387e815ec15c3ccbb8ea1","6419ce7e7f821d71d4801a99",NA,NA,NA,NA,NA,NA,NA,NA,NA,NA,NA,3452,NA,"{""CRAP_diverse"":""red""}",NA,NA,NA,NA
NA,NA,NA,NA,NA,"instructions",27,889754,"0.0-8.0","5733464fbc6923000fcd2de1","641387e815ec15c3ccbb8ea1","6419ce7e7f821d71d4801a99",NA,NA,NA,NA,NA,NA,NA,NA,NA,NA,NA,127222,NA,NA,"[{""page_index"":0,""viewing_time"":127222}]",NA,NA,NA
NA,NA,NA,NA,NA,"instructions",28,924083,"0.0-9.0","5733464fbc6923000fcd2de1","641387e815ec15c3ccbb8ea1","6419ce7e7f821d71d4801a99",NA,NA,NA,NA,NA,NA,NA,NA,NA,NA,NA,34328,NA,NA,"[{""page_index"":0,""viewing_time"":18572},{""page_index"":1,""viewing_time"":15755}]",NA,NA,NA
NA,NA,NA,NA,NA,"sketchpad",29,964004,"0.0-10.0-0.0","5733464fbc6923000fcd2de1","641387e815ec15c3ccbb8ea1","6419ce7e7f821d71d4801a99",NA,NA,NA,NA,NA,NA,NA,NA,NA,NA,NA,39894,NA,"button",NA,"5733464fbc6923000fcd2de1_29_image.png",NA,NA
NA,NA,NA,NA,NA,"survey-html-form",30,968245,"0.0-10.0-1.0-0.0","5733464fbc6923000fcd2de1","641387e815ec15c3ccbb8ea1","6419ce7e7f821d71d4801a99",NA,NA,NA,NA,NA,NA,NA,NA,NA,NA,NA,4233,NA,"{""let_diverse"":""day""}",NA,NA,NA,NA
NA,NA,NA,NA,NA,"survey-html-form",31,970440,"0.0-10.0-1.0-0.1","5733464fbc6923000fcd2de1","641387e815ec15c3ccbb8ea1","6419ce7e7f821d71d4801a99",NA,NA,NA,NA,NA,NA,NA,NA,NA,NA,NA,2193,NA,"{""let_diverse"":""darn""}",NA,NA,NA,NA
NA,NA,NA,NA,NA,"survey-html-form",32,972656,"0.0-10.0-1.0-0.2","5733464fbc6923000fcd2de1","641387e815ec15c3ccbb8ea1","6419ce7e7f821d71d4801a99",NA,NA,NA,NA,NA,NA,NA,NA,NA,NA,NA,2215,NA,"{""let_diverse"":""dab""}",NA,NA,NA,NA
NA,NA,NA,NA,NA,"survey-html-form",33,979406,"0.0-10.0-1.0-0.3","5733464fbc6923000fcd2de1","641387e815ec15c3ccbb8ea1","6419ce7e7f821d71d4801a99",NA,NA,NA,NA,NA,NA,NA,NA,NA,NA,NA,6749,NA,"{""let_diverse"":""daytime""}",NA,NA,NA,NA
